<?xml version="1.0" encoding="UTF-8"?>
<!-- Produced from SAS data using SAS Clinical Standards Toolkit -->
<ODM
xmlns="http://www.cdisc.org/ns/odm/v1.3"
xmlns:data="http://www.cdisc.org/ns/Dataset-XML/v1.0"
ODMVersion="1.3.2"
FileType="Snapshot"
FileOID="cdisc01.IE"
PriorFileOID="www.cdisc.org.Studycdisc01-Define-XML_2.0.0"
CreationDateTime="2014-10-29T11:15:02"
data:DatasetXMLVersion="1.0.0">
<ClinicalData StudyOID="cdisc01" MetaDataVersionOID="MDV.CDISC01.SDTMIG.3.1.2.SDTM.1.2">
<ItemGroupData ItemGroupOID="IG.IE" data:ItemGroupDataSeq="1">
<ItemData ItemOID="IT.STUDYID" Value="CDISC01"/>
<ItemData ItemOID="IT.IE.DOMAIN" Value="IE"/>
<ItemData ItemOID="IT.USUBJID" Value="CDISC01.200005"/>
<ItemData ItemOID="IT.IE.IESEQ" Value="1"/>
<ItemData ItemOID="IT.IE.IETESTCD" Value="INCL03"/>
<ItemData ItemOID="IT.IE.IETEST" Value="Did not respond to a standard course of medication Abc"/>
<ItemData ItemOID="IT.IE.IECAT" Value="INCLUSION"/>
<ItemData ItemOID="IT.IE.IEORRES" Value="N"/>
<ItemData ItemOID="IT.IE.IESTRESC" Value="N"/>
<ItemData ItemOID="IT.IE.VISITNUM" Value="1"/>
<ItemData ItemOID="IT.IE.VISIT" Value="SCREEN"/>
<ItemData ItemOID="IT.IE.IEDTC" Value="2003-09-15"/>
</ItemGroupData>
</ClinicalData>
</ODM>
