<?xml version="1.0" encoding="UTF-8"?>
<!-- Produced from SAS data using SAS Clinical Standards Toolkit -->
<ODM
xmlns="http://www.cdisc.org/ns/odm/v1.3"
xmlns:data="http://www.cdisc.org/ns/Dataset-XML/v1.0"
ODMVersion="1.3.2"
FileType="Snapshot"
FileOID="cdisc01.LB"
PriorFileOID="www.cdisc.org.Studycdisc01-Define-XML_2.0.0"
CreationDateTime="2014-10-29T11:15:03"
data:DatasetXMLVersion="1.0.0">
<ClinicalData StudyOID="cdisc01" MetaDataVersionOID="MDV.CDISC01.SDTMIG.3.1.2.SDTM.1.2">
<ItemGroupData ItemGroupOID="IG.LB" data:ItemGroupDataSeq="1">
<ItemData ItemOID="IT.STUDYID" Value="CDISC01"/>
<ItemData ItemOID="IT.LB.DOMAIN" Value="LB"/>
<ItemData ItemOID="IT.USUBJID" Value="CDISC01.100008"/>
<ItemData ItemOID="IT.LB.LBSEQ" Value="1"/>
<ItemData ItemOID="IT.LB.LBREFID" Value="B232115"/>
<ItemData ItemOID="IT.LB.LBTESTCD" Value="BILI"/>
<ItemData ItemOID="IT.LB.LBTEST" Value="Bilirubin"/>
<ItemData ItemOID="IT.LB.LBCAT" Value="CHEMISTRY"/>
<ItemData ItemOID="IT.LB.LBORRES" Value="0.4"/>
<ItemData ItemOID="IT.LB.LBORRESU" Value="mg/dL"/>
<ItemData ItemOID="IT.LB.LBORNRLO" Value=".0"/>
<ItemData ItemOID="IT.LB.LBORNRHI" Value="1.1"/>
<ItemData ItemOID="IT.LB.LBSTRESC" Value="6.8"/>
<ItemData ItemOID="IT.LB.LBSTRESN" Value="6.8"/>
<ItemData ItemOID="IT.LB.LBSTRESU" Value="umol/L"/>
<ItemData ItemOID="IT.LB.LBSTNRLO" Value="0"/>
<ItemData ItemOID="IT.LB.LBSTNRHI" Value="18.8"/>
<ItemData ItemOID="IT.LB.LBNRIND" Value="NORMAL"/>
<ItemData ItemOID="IT.LB.LBSPEC" Value="BLOOD"/>
<ItemData ItemOID="IT.LB.LBBLFL" Value="Y"/>
<ItemData ItemOID="IT.LB.LBFAST" Value="Y"/>
<ItemData ItemOID="IT.LB.VISITNUM" Value="1"/>
<ItemData ItemOID="IT.LB.VISIT" Value="SCREEN"/>
<ItemData ItemOID="IT.LB.VISITDY" Value="-13"/>
<ItemData ItemOID="IT.LB.LBDTC" Value="2003-04-15T11:20"/>
<ItemData ItemOID="IT.LB.LBDY" Value="-14"/>
</ItemGroupData>
<ItemGroupData ItemGroupOID="IG.LB" data:ItemGroupDataSeq="2">
<ItemData ItemOID="IT.STUDYID" Value="CDISC01"/>
<ItemData ItemOID="IT.LB.DOMAIN" Value="LB"/>
<ItemData ItemOID="IT.USUBJID" Value="CDISC01.100008"/>
<ItemData ItemOID="IT.LB.LBSEQ" Value="2"/>
<ItemData ItemOID="IT.LB.LBREFID" Value="B290028"/>
<ItemData ItemOID="IT.LB.LBTESTCD" Value="BILI"/>
<ItemData ItemOID="IT.LB.LBTEST" Value="Bilirubin"/>
<ItemData ItemOID="IT.LB.LBCAT" Value="CHEMISTRY"/>
<ItemData ItemOID="IT.LB.LBORRES" Value="0.3"/>
<ItemData ItemOID="IT.LB.LBORRESU" Value="mg/dL"/>
<ItemData ItemOID="IT.LB.LBORNRLO" Value=".0"/>
<ItemData ItemOID="IT.LB.LBORNRHI" Value="1.1"/>
<ItemData ItemOID="IT.LB.LBSTRESC" Value="5.1"/>
<ItemData ItemOID="IT.LB.LBSTRESN" Value="5.1"/>
<ItemData ItemOID="IT.LB.LBSTRESU" Value="umol/L"/>
<ItemData ItemOID="IT.LB.LBSTNRLO" Value="0"/>
<ItemData ItemOID="IT.LB.LBSTNRHI" Value="18.8"/>
<ItemData ItemOID="IT.LB.LBNRIND" Value="NORMAL"/>
<ItemData ItemOID="IT.LB.LBSPEC" Value="BLOOD"/>
<ItemData ItemOID="IT.LB.LBFAST" Value="N"/>
<ItemData ItemOID="IT.LB.VISITNUM" Value="10"/>
<ItemData ItemOID="IT.LB.VISIT" Value="WEEK 24"/>
<ItemData ItemOID="IT.LB.VISITDY" Value="169"/>
<ItemData ItemOID="IT.LB.LBDTC" Value="2003-10-13T11:55"/>
<ItemData ItemOID="IT.LB.LBDY" Value="168"/>
</ItemGroupData>
<ItemGroupData ItemGroupOID="IG.LB" data:ItemGroupDataSeq="3">
<ItemData ItemOID="IT.STUDYID" Value="CDISC01"/>
<ItemData ItemOID="IT.LB.DOMAIN" Value="LB"/>
<ItemData ItemOID="IT.USUBJID" Value="CDISC01.100008"/>
<ItemData ItemOID="IT.LB.LBSEQ" Value="3"/>
<ItemData ItemOID="IT.LB.LBREFID" Value="B232115"/>
<ItemData ItemOID="IT.LB.LBTESTCD" Value="BUN"/>
<ItemData ItemOID="IT.LB.LBTEST" Value="Blood Urea Nitrogen"/>
<ItemData ItemOID="IT.LB.LBCAT" Value="CHEMISTRY"/>
<ItemData ItemOID="IT.LB.LBORRES" Value="26"/>
<ItemData ItemOID="IT.LB.LBORRESU" Value="mg/dL"/>
<ItemData ItemOID="IT.LB.LBORNRLO" Value="9"/>
<ItemData ItemOID="IT.LB.LBORNRHI" Value="24"/>
<ItemData ItemOID="IT.LB.LBSTRESC" Value="9.28"/>
<ItemData ItemOID="IT.LB.LBSTRESN" Value="9.28"/>
<ItemData ItemOID="IT.LB.LBSTRESU" Value="mmol/L"/>
<ItemData ItemOID="IT.LB.LBSTNRLO" Value="3.21"/>
<ItemData ItemOID="IT.LB.LBSTNRHI" Value="8.57"/>
<ItemData ItemOID="IT.LB.LBNRIND" Value="HIGH"/>
<ItemData ItemOID="IT.LB.LBSPEC" Value="BLOOD"/>
<ItemData ItemOID="IT.LB.LBBLFL" Value="Y"/>
<ItemData ItemOID="IT.LB.LBFAST" Value="Y"/>
<ItemData ItemOID="IT.LB.VISITNUM" Value="1"/>
<ItemData ItemOID="IT.LB.VISIT" Value="SCREEN"/>
<ItemData ItemOID="IT.LB.VISITDY" Value="-13"/>
<ItemData ItemOID="IT.LB.LBDTC" Value="2003-04-15T11:20"/>
<ItemData ItemOID="IT.LB.LBDY" Value="-14"/>
</ItemGroupData>
<ItemGroupData ItemGroupOID="IG.LB" data:ItemGroupDataSeq="4">
<ItemData ItemOID="IT.STUDYID" Value="CDISC01"/>
<ItemData ItemOID="IT.LB.DOMAIN" Value="LB"/>
<ItemData ItemOID="IT.USUBJID" Value="CDISC01.100008"/>
<ItemData ItemOID="IT.LB.LBSEQ" Value="4"/>
<ItemData ItemOID="IT.LB.LBREFID" Value="B290028"/>
<ItemData ItemOID="IT.LB.LBTESTCD" Value="BUN"/>
<ItemData ItemOID="IT.LB.LBTEST" Value="Blood Urea Nitrogen"/>
<ItemData ItemOID="IT.LB.LBCAT" Value="CHEMISTRY"/>
<ItemData ItemOID="IT.LB.LBORRES" Value="18"/>
<ItemData ItemOID="IT.LB.LBORRESU" Value="mg/dL"/>
<ItemData ItemOID="IT.LB.LBORNRLO" Value="9"/>
<ItemData ItemOID="IT.LB.LBORNRHI" Value="24"/>
<ItemData ItemOID="IT.LB.LBSTRESC" Value="6.43"/>
<ItemData ItemOID="IT.LB.LBSTRESN" Value="6.43"/>
<ItemData ItemOID="IT.LB.LBSTRESU" Value="mmol/L"/>
<ItemData ItemOID="IT.LB.LBSTNRLO" Value="3.21"/>
<ItemData ItemOID="IT.LB.LBSTNRHI" Value="8.57"/>
<ItemData ItemOID="IT.LB.LBNRIND" Value="NORMAL"/>
<ItemData ItemOID="IT.LB.LBSPEC" Value="BLOOD"/>
<ItemData ItemOID="IT.LB.LBFAST" Value="N"/>
<ItemData ItemOID="IT.LB.VISITNUM" Value="10"/>
<ItemData ItemOID="IT.LB.VISIT" Value="WEEK 24"/>
<ItemData ItemOID="IT.LB.VISITDY" Value="169"/>
<ItemData ItemOID="IT.LB.LBDTC" Value="2003-10-13T11:55"/>
<ItemData ItemOID="IT.LB.LBDY" Value="168"/>
</ItemGroupData>
<ItemGroupData ItemGroupOID="IG.LB" data:ItemGroupDataSeq="5">
<ItemData ItemOID="IT.STUDYID" Value="CDISC01"/>
<ItemData ItemOID="IT.LB.DOMAIN" Value="LB"/>
<ItemData ItemOID="IT.USUBJID" Value="CDISC01.100008"/>
<ItemData ItemOID="IT.LB.LBSEQ" Value="5"/>
<ItemData ItemOID="IT.LB.LBREFID" Value="B232115"/>
<ItemData ItemOID="IT.LB.LBTESTCD" Value="GLUC"/>
<ItemData ItemOID="IT.LB.LBTEST" Value="Glucose"/>
<ItemData ItemOID="IT.LB.LBCAT" Value="CHEMISTRY"/>
<ItemData ItemOID="IT.LB.LBORRES" Value="100"/>
<ItemData ItemOID="IT.LB.LBORRESU" Value="mg/dL"/>
<ItemData ItemOID="IT.LB.LBORNRLO" Value="68"/>
<ItemData ItemOID="IT.LB.LBORNRHI" Value="110"/>
<ItemData ItemOID="IT.LB.LBSTRESC" Value="5.5"/>
<ItemData ItemOID="IT.LB.LBSTRESN" Value="5.5"/>
<ItemData ItemOID="IT.LB.LBSTRESU" Value="mmol/L"/>
<ItemData ItemOID="IT.LB.LBSTNRLO" Value="3.8"/>
<ItemData ItemOID="IT.LB.LBSTNRHI" Value="6.1"/>
<ItemData ItemOID="IT.LB.LBNRIND" Value="NORMAL"/>
<ItemData ItemOID="IT.LB.LBSPEC" Value="BLOOD"/>
<ItemData ItemOID="IT.LB.LBBLFL" Value="Y"/>
<ItemData ItemOID="IT.LB.LBFAST" Value="Y"/>
<ItemData ItemOID="IT.LB.VISITNUM" Value="1"/>
<ItemData ItemOID="IT.LB.VISIT" Value="SCREEN"/>
<ItemData ItemOID="IT.LB.VISITDY" Value="-13"/>
<ItemData ItemOID="IT.LB.LBDTC" Value="2003-04-15T11:20"/>
<ItemData ItemOID="IT.LB.LBDY" Value="-14"/>
</ItemGroupData>
<ItemGroupData ItemGroupOID="IG.LB" data:ItemGroupDataSeq="6">
<ItemData ItemOID="IT.STUDYID" Value="CDISC01"/>
<ItemData ItemOID="IT.LB.DOMAIN" Value="LB"/>
<ItemData ItemOID="IT.USUBJID" Value="CDISC01.100008"/>
<ItemData ItemOID="IT.LB.LBSEQ" Value="6"/>
<ItemData ItemOID="IT.LB.LBREFID" Value="B290028"/>
<ItemData ItemOID="IT.LB.LBTESTCD" Value="GLUC"/>
<ItemData ItemOID="IT.LB.LBTEST" Value="Glucose"/>
<ItemData ItemOID="IT.LB.LBCAT" Value="CHEMISTRY"/>
<ItemData ItemOID="IT.LB.LBORRES" Value="87"/>
<ItemData ItemOID="IT.LB.LBORRESU" Value="mg/dL"/>
<ItemData ItemOID="IT.LB.LBORNRLO" Value="68"/>
<ItemData ItemOID="IT.LB.LBORNRHI" Value="110"/>
<ItemData ItemOID="IT.LB.LBSTRESC" Value="4.8"/>
<ItemData ItemOID="IT.LB.LBSTRESN" Value="4.8"/>
<ItemData ItemOID="IT.LB.LBSTRESU" Value="mmol/L"/>
<ItemData ItemOID="IT.LB.LBSTNRLO" Value="3.8"/>
<ItemData ItemOID="IT.LB.LBSTNRHI" Value="6.1"/>
<ItemData ItemOID="IT.LB.LBNRIND" Value="NORMAL"/>
<ItemData ItemOID="IT.LB.LBSPEC" Value="BLOOD"/>
<ItemData ItemOID="IT.LB.LBFAST" Value="Y"/>
<ItemData ItemOID="IT.LB.VISITNUM" Value="10"/>
<ItemData ItemOID="IT.LB.VISIT" Value="WEEK 24"/>
<ItemData ItemOID="IT.LB.VISITDY" Value="169"/>
<ItemData ItemOID="IT.LB.LBDTC" Value="2003-10-13T11:55"/>
<ItemData ItemOID="IT.LB.LBDY" Value="168"/>
</ItemGroupData>
<ItemGroupData ItemGroupOID="IG.LB" data:ItemGroupDataSeq="7">
<ItemData ItemOID="IT.STUDYID" Value="CDISC01"/>
<ItemData ItemOID="IT.LB.DOMAIN" Value="LB"/>
<ItemData ItemOID="IT.USUBJID" Value="CDISC01.100008"/>
<ItemData ItemOID="IT.LB.LBSEQ" Value="7"/>
<ItemData ItemOID="IT.LB.LBREFID" Value="B232115"/>
<ItemData ItemOID="IT.LB.LBTESTCD" Value="VITB12"/>
<ItemData ItemOID="IT.LB.LBTEST" Value="Vitamin B12"/>
<ItemData ItemOID="IT.LB.LBCAT" Value="CHEMISTRY"/>
<ItemData ItemOID="IT.LB.LBORRES" Value="366"/>
<ItemData ItemOID="IT.LB.LBORRESU" Value="pg/mL"/>
<ItemData ItemOID="IT.LB.LBORNRLO" Value="220"/>
<ItemData ItemOID="IT.LB.LBORNRHI" Value="960"/>
<ItemData ItemOID="IT.LB.LBSTRESC" Value="270"/>
<ItemData ItemOID="IT.LB.LBSTRESN" Value="270"/>
<ItemData ItemOID="IT.LB.LBSTRESU" Value="pmol/L"/>
<ItemData ItemOID="IT.LB.LBSTNRLO" Value="162"/>
<ItemData ItemOID="IT.LB.LBSTNRHI" Value="708"/>
<ItemData ItemOID="IT.LB.LBNRIND" Value="NORMAL"/>
<ItemData ItemOID="IT.LB.LBSPEC" Value="SERUM"/>
<ItemData ItemOID="IT.LB.LBBLFL" Value="Y"/>
<ItemData ItemOID="IT.LB.LBFAST" Value="Y"/>
<ItemData ItemOID="IT.LB.VISITNUM" Value="1"/>
<ItemData ItemOID="IT.LB.VISIT" Value="SCREEN"/>
<ItemData ItemOID="IT.LB.VISITDY" Value="-13"/>
<ItemData ItemOID="IT.LB.LBDTC" Value="2003-04-15T11:20"/>
<ItemData ItemOID="IT.LB.LBDY" Value="-14"/>
</ItemGroupData>
<ItemGroupData ItemGroupOID="IG.LB" data:ItemGroupDataSeq="8">
<ItemData ItemOID="IT.STUDYID" Value="CDISC01"/>
<ItemData ItemOID="IT.LB.DOMAIN" Value="LB"/>
<ItemData ItemOID="IT.USUBJID" Value="CDISC01.100008"/>
<ItemData ItemOID="IT.LB.LBSEQ" Value="8"/>
<ItemData ItemOID="IT.LB.LBREFID" Value="B232115"/>
<ItemData ItemOID="IT.LB.LBTESTCD" Value="VITB9"/>
<ItemData ItemOID="IT.LB.LBTEST" Value="Vitamin B9"/>
<ItemData ItemOID="IT.LB.LBCAT" Value="CHEMISTRY"/>
<ItemData ItemOID="IT.LB.LBORRES" Value="55.8"/>
<ItemData ItemOID="IT.LB.LBORRESU" Value="ng/dL"/>
<ItemData ItemOID="IT.LB.LBORNRLO" Value="3.0"/>
<ItemData ItemOID="IT.LB.LBORNRHI" Value="17.0"/>
<ItemData ItemOID="IT.LB.LBSTRESC" Value="126.4"/>
<ItemData ItemOID="IT.LB.LBSTRESN" Value="126.4"/>
<ItemData ItemOID="IT.LB.LBSTRESU" Value="nmol/L"/>
<ItemData ItemOID="IT.LB.LBSTNRLO" Value="6.8"/>
<ItemData ItemOID="IT.LB.LBSTNRHI" Value="38.5"/>
<ItemData ItemOID="IT.LB.LBNRIND" Value="HIGH"/>
<ItemData ItemOID="IT.LB.LBSPEC" Value="BLOOD"/>
<ItemData ItemOID="IT.LB.LBBLFL" Value="Y"/>
<ItemData ItemOID="IT.LB.LBFAST" Value="Y"/>
<ItemData ItemOID="IT.LB.VISITNUM" Value="1"/>
<ItemData ItemOID="IT.LB.VISIT" Value="SCREEN"/>
<ItemData ItemOID="IT.LB.VISITDY" Value="-13"/>
<ItemData ItemOID="IT.LB.LBDTC" Value="2003-04-15T11:20"/>
<ItemData ItemOID="IT.LB.LBDY" Value="-14"/>
</ItemGroupData>
<ItemGroupData ItemGroupOID="IG.LB" data:ItemGroupDataSeq="9">
<ItemData ItemOID="IT.STUDYID" Value="CDISC01"/>
<ItemData ItemOID="IT.LB.DOMAIN" Value="LB"/>
<ItemData ItemOID="IT.USUBJID" Value="CDISC01.100008"/>
<ItemData ItemOID="IT.LB.LBSEQ" Value="9"/>
<ItemData ItemOID="IT.LB.LBREFID" Value="B232115"/>
<ItemData ItemOID="IT.LB.LBTESTCD" Value="HCT"/>
<ItemData ItemOID="IT.LB.LBTEST" Value="Hematocrit"/>
<ItemData ItemOID="IT.LB.LBCAT" Value="HEMATOLOGY"/>
<ItemData ItemOID="IT.LB.LBORRES" Value="36.2"/>
<ItemData ItemOID="IT.LB.LBORRESU" Value="%"/>
<ItemData ItemOID="IT.LB.LBORNRLO" Value="40.0"/>
<ItemData ItemOID="IT.LB.LBORNRHI" Value="54.0"/>
<ItemData ItemOID="IT.LB.LBSTRESC" Value="0.36"/>
<ItemData ItemOID="IT.LB.LBSTRESN" Value="0.36"/>
<ItemData ItemOID="IT.LB.LBSTNRLO" Value="0.4"/>
<ItemData ItemOID="IT.LB.LBSTNRHI" Value="0.54"/>
<ItemData ItemOID="IT.LB.LBNRIND" Value="LOW"/>
<ItemData ItemOID="IT.LB.LBSPEC" Value="BLOOD"/>
<ItemData ItemOID="IT.LB.LBBLFL" Value="Y"/>
<ItemData ItemOID="IT.LB.LBFAST" Value="Y"/>
<ItemData ItemOID="IT.LB.VISITNUM" Value="1"/>
<ItemData ItemOID="IT.LB.VISIT" Value="SCREEN"/>
<ItemData ItemOID="IT.LB.VISITDY" Value="-13"/>
<ItemData ItemOID="IT.LB.LBDTC" Value="2003-04-15T11:20"/>
<ItemData ItemOID="IT.LB.LBDY" Value="-14"/>
</ItemGroupData>
<ItemGroupData ItemGroupOID="IG.LB" data:ItemGroupDataSeq="10">
<ItemData ItemOID="IT.STUDYID" Value="CDISC01"/>
<ItemData ItemOID="IT.LB.DOMAIN" Value="LB"/>
<ItemData ItemOID="IT.USUBJID" Value="CDISC01.100008"/>
<ItemData ItemOID="IT.LB.LBSEQ" Value="10"/>
<ItemData ItemOID="IT.LB.LBREFID" Value="B290028"/>
<ItemData ItemOID="IT.LB.LBTESTCD" Value="HCT"/>
<ItemData ItemOID="IT.LB.LBTEST" Value="Hematocrit"/>
<ItemData ItemOID="IT.LB.LBCAT" Value="HEMATOLOGY"/>
<ItemData ItemOID="IT.LB.LBORRES" Value="32.9"/>
<ItemData ItemOID="IT.LB.LBORRESU" Value="%"/>
<ItemData ItemOID="IT.LB.LBORNRLO" Value="40.0"/>
<ItemData ItemOID="IT.LB.LBORNRHI" Value="54.0"/>
<ItemData ItemOID="IT.LB.LBSTRESC" Value="0.33"/>
<ItemData ItemOID="IT.LB.LBSTRESN" Value="0.33"/>
<ItemData ItemOID="IT.LB.LBSTNRLO" Value="0.4"/>
<ItemData ItemOID="IT.LB.LBSTNRHI" Value="0.54"/>
<ItemData ItemOID="IT.LB.LBNRIND" Value="LOW"/>
<ItemData ItemOID="IT.LB.LBSPEC" Value="BLOOD"/>
<ItemData ItemOID="IT.LB.LBFAST" Value="N"/>
<ItemData ItemOID="IT.LB.VISITNUM" Value="10"/>
<ItemData ItemOID="IT.LB.VISIT" Value="WEEK 24"/>
<ItemData ItemOID="IT.LB.VISITDY" Value="169"/>
<ItemData ItemOID="IT.LB.LBDTC" Value="2003-10-13T11:55"/>
<ItemData ItemOID="IT.LB.LBDY" Value="168"/>
</ItemGroupData>
<ItemGroupData ItemGroupOID="IG.LB" data:ItemGroupDataSeq="11">
<ItemData ItemOID="IT.STUDYID" Value="CDISC01"/>
<ItemData ItemOID="IT.LB.DOMAIN" Value="LB"/>
<ItemData ItemOID="IT.USUBJID" Value="CDISC01.100008"/>
<ItemData ItemOID="IT.LB.LBSEQ" Value="11"/>
<ItemData ItemOID="IT.LB.LBREFID" Value="B232115"/>
<ItemData ItemOID="IT.LB.LBTESTCD" Value="HGB"/>
<ItemData ItemOID="IT.LB.LBTEST" Value="Hemoglobin"/>
<ItemData ItemOID="IT.LB.LBCAT" Value="HEMATOLOGY"/>
<ItemData ItemOID="IT.LB.LBORRES" Value="12.0"/>
<ItemData ItemOID="IT.LB.LBORRESU" Value="g/dL"/>
<ItemData ItemOID="IT.LB.LBORNRLO" Value="13.2"/>
<ItemData ItemOID="IT.LB.LBORNRHI" Value="17.0"/>
<ItemData ItemOID="IT.LB.LBSTRESC" Value="120"/>
<ItemData ItemOID="IT.LB.LBSTRESN" Value="120"/>
<ItemData ItemOID="IT.LB.LBSTRESU" Value="g/L"/>
<ItemData ItemOID="IT.LB.LBSTNRLO" Value="132"/>
<ItemData ItemOID="IT.LB.LBSTNRHI" Value="170"/>
<ItemData ItemOID="IT.LB.LBNRIND" Value="LOW"/>
<ItemData ItemOID="IT.LB.LBSPEC" Value="BLOOD"/>
<ItemData ItemOID="IT.LB.LBBLFL" Value="Y"/>
<ItemData ItemOID="IT.LB.LBFAST" Value="Y"/>
<ItemData ItemOID="IT.LB.VISITNUM" Value="1"/>
<ItemData ItemOID="IT.LB.VISIT" Value="SCREEN"/>
<ItemData ItemOID="IT.LB.VISITDY" Value="-13"/>
<ItemData ItemOID="IT.LB.LBDTC" Value="2003-04-15T11:20"/>
<ItemData ItemOID="IT.LB.LBDY" Value="-14"/>
</ItemGroupData>
<ItemGroupData ItemGroupOID="IG.LB" data:ItemGroupDataSeq="12">
<ItemData ItemOID="IT.STUDYID" Value="CDISC01"/>
<ItemData ItemOID="IT.LB.DOMAIN" Value="LB"/>
<ItemData ItemOID="IT.USUBJID" Value="CDISC01.100008"/>
<ItemData ItemOID="IT.LB.LBSEQ" Value="12"/>
<ItemData ItemOID="IT.LB.LBREFID" Value="B290028"/>
<ItemData ItemOID="IT.LB.LBTESTCD" Value="HGB"/>
<ItemData ItemOID="IT.LB.LBTEST" Value="Hemoglobin"/>
<ItemData ItemOID="IT.LB.LBCAT" Value="HEMATOLOGY"/>
<ItemData ItemOID="IT.LB.LBORRES" Value="11.3"/>
<ItemData ItemOID="IT.LB.LBORRESU" Value="g/dL"/>
<ItemData ItemOID="IT.LB.LBORNRLO" Value="13.2"/>
<ItemData ItemOID="IT.LB.LBORNRHI" Value="17.0"/>
<ItemData ItemOID="IT.LB.LBSTRESC" Value="113"/>
<ItemData ItemOID="IT.LB.LBSTRESN" Value="113"/>
<ItemData ItemOID="IT.LB.LBSTRESU" Value="g/L"/>
<ItemData ItemOID="IT.LB.LBSTNRLO" Value="132"/>
<ItemData ItemOID="IT.LB.LBSTNRHI" Value="170"/>
<ItemData ItemOID="IT.LB.LBNRIND" Value="LOW"/>
<ItemData ItemOID="IT.LB.LBSPEC" Value="BLOOD"/>
<ItemData ItemOID="IT.LB.LBFAST" Value="N"/>
<ItemData ItemOID="IT.LB.VISITNUM" Value="10"/>
<ItemData ItemOID="IT.LB.VISIT" Value="WEEK 24"/>
<ItemData ItemOID="IT.LB.VISITDY" Value="169"/>
<ItemData ItemOID="IT.LB.LBDTC" Value="2003-10-13T11:55"/>
<ItemData ItemOID="IT.LB.LBDY" Value="168"/>
</ItemGroupData>
<ItemGroupData ItemGroupOID="IG.LB" data:ItemGroupDataSeq="13">
<ItemData ItemOID="IT.STUDYID" Value="CDISC01"/>
<ItemData ItemOID="IT.LB.DOMAIN" Value="LB"/>
<ItemData ItemOID="IT.USUBJID" Value="CDISC01.100008"/>
<ItemData ItemOID="IT.LB.LBSEQ" Value="13"/>
<ItemData ItemOID="IT.LB.LBREFID" Value="B232115"/>
<ItemData ItemOID="IT.LB.LBTESTCD" Value="LYM"/>
<ItemData ItemOID="IT.LB.LBTEST" Value="Lymphocytes"/>
<ItemData ItemOID="IT.LB.LBCAT" Value="HEMATOLOGY"/>
<ItemData ItemOID="IT.LB.LBORRES" Value="1.68"/>
<ItemData ItemOID="IT.LB.LBORRESU" Value="X10^9/L"/>
<ItemData ItemOID="IT.LB.LBORNRLO" Value="1.20"/>
<ItemData ItemOID="IT.LB.LBORNRHI" Value="4.00"/>
<ItemData ItemOID="IT.LB.LBSTRESC" Value="1.68"/>
<ItemData ItemOID="IT.LB.LBSTRESN" Value="1.68"/>
<ItemData ItemOID="IT.LB.LBSTRESU" Value="10**9/L"/>
<ItemData ItemOID="IT.LB.LBSTNRLO" Value="1.2"/>
<ItemData ItemOID="IT.LB.LBSTNRHI" Value="4"/>
<ItemData ItemOID="IT.LB.LBNRIND" Value="NORMAL"/>
<ItemData ItemOID="IT.LB.LBSPEC" Value="BLOOD"/>
<ItemData ItemOID="IT.LB.LBBLFL" Value="Y"/>
<ItemData ItemOID="IT.LB.LBFAST" Value="Y"/>
<ItemData ItemOID="IT.LB.VISITNUM" Value="1"/>
<ItemData ItemOID="IT.LB.VISIT" Value="SCREEN"/>
<ItemData ItemOID="IT.LB.VISITDY" Value="-13"/>
<ItemData ItemOID="IT.LB.LBDTC" Value="2003-04-15T11:20"/>
<ItemData ItemOID="IT.LB.LBDY" Value="-14"/>
</ItemGroupData>
<ItemGroupData ItemGroupOID="IG.LB" data:ItemGroupDataSeq="14">
<ItemData ItemOID="IT.STUDYID" Value="CDISC01"/>
<ItemData ItemOID="IT.LB.DOMAIN" Value="LB"/>
<ItemData ItemOID="IT.USUBJID" Value="CDISC01.100008"/>
<ItemData ItemOID="IT.LB.LBSEQ" Value="14"/>
<ItemData ItemOID="IT.LB.LBREFID" Value="B290028"/>
<ItemData ItemOID="IT.LB.LBTESTCD" Value="LYM"/>
<ItemData ItemOID="IT.LB.LBTEST" Value="Lymphocytes"/>
<ItemData ItemOID="IT.LB.LBCAT" Value="HEMATOLOGY"/>
<ItemData ItemOID="IT.LB.LBORRES" Value="1.34"/>
<ItemData ItemOID="IT.LB.LBORRESU" Value="X10^9/L"/>
<ItemData ItemOID="IT.LB.LBORNRLO" Value="1.20"/>
<ItemData ItemOID="IT.LB.LBORNRHI" Value="4.00"/>
<ItemData ItemOID="IT.LB.LBSTRESC" Value="1.34"/>
<ItemData ItemOID="IT.LB.LBSTRESN" Value="1.34"/>
<ItemData ItemOID="IT.LB.LBSTRESU" Value="10**9/L"/>
<ItemData ItemOID="IT.LB.LBSTNRLO" Value="1.2"/>
<ItemData ItemOID="IT.LB.LBSTNRHI" Value="4"/>
<ItemData ItemOID="IT.LB.LBNRIND" Value="NORMAL"/>
<ItemData ItemOID="IT.LB.LBSPEC" Value="BLOOD"/>
<ItemData ItemOID="IT.LB.LBFAST" Value="N"/>
<ItemData ItemOID="IT.LB.VISITNUM" Value="10"/>
<ItemData ItemOID="IT.LB.VISIT" Value="WEEK 24"/>
<ItemData ItemOID="IT.LB.VISITDY" Value="169"/>
<ItemData ItemOID="IT.LB.LBDTC" Value="2003-10-13T11:55"/>
<ItemData ItemOID="IT.LB.LBDY" Value="168"/>
</ItemGroupData>
<ItemGroupData ItemGroupOID="IG.LB" data:ItemGroupDataSeq="15">
<ItemData ItemOID="IT.STUDYID" Value="CDISC01"/>
<ItemData ItemOID="IT.LB.DOMAIN" Value="LB"/>
<ItemData ItemOID="IT.USUBJID" Value="CDISC01.100008"/>
<ItemData ItemOID="IT.LB.LBSEQ" Value="15"/>
<ItemData ItemOID="IT.LB.LBREFID" Value="B232115"/>
<ItemData ItemOID="IT.LB.LBTESTCD" Value="OCCBLD"/>
<ItemData ItemOID="IT.LB.LBTEST" Value="Occult Blood"/>
<ItemData ItemOID="IT.LB.LBCAT" Value="URINALYSIS"/>
<ItemData ItemOID="IT.LB.LBORRES" Value="1+"/>
<ItemData ItemOID="IT.LB.LBSTRESC" Value="1+"/>
<ItemData ItemOID="IT.LB.LBSTNRC" Value="NEGATIVE - NEGATIVE"/>
<ItemData ItemOID="IT.LB.LBNRIND" Value="HIGH"/>
<ItemData ItemOID="IT.LB.LBSPEC" Value="URINE"/>
<ItemData ItemOID="IT.LB.LBBLFL" Value="Y"/>
<ItemData ItemOID="IT.LB.LBFAST" Value="N"/>
<ItemData ItemOID="IT.LB.VISITNUM" Value="1"/>
<ItemData ItemOID="IT.LB.VISIT" Value="SCREEN"/>
<ItemData ItemOID="IT.LB.VISITDY" Value="-13"/>
<ItemData ItemOID="IT.LB.LBDTC" Value="2003-04-15T11:20"/>
<ItemData ItemOID="IT.LB.LBDY" Value="-14"/>
</ItemGroupData>
<ItemGroupData ItemGroupOID="IG.LB" data:ItemGroupDataSeq="16">
<ItemData ItemOID="IT.STUDYID" Value="CDISC01"/>
<ItemData ItemOID="IT.LB.DOMAIN" Value="LB"/>
<ItemData ItemOID="IT.USUBJID" Value="CDISC01.100008"/>
<ItemData ItemOID="IT.LB.LBSEQ" Value="16"/>
<ItemData ItemOID="IT.LB.LBREFID" Value="B290028"/>
<ItemData ItemOID="IT.LB.LBTESTCD" Value="OCCBLD"/>
<ItemData ItemOID="IT.LB.LBTEST" Value="Occult Blood"/>
<ItemData ItemOID="IT.LB.LBCAT" Value="URINALYSIS"/>
<ItemData ItemOID="IT.LB.LBORRES" Value="NEGATIVE"/>
<ItemData ItemOID="IT.LB.LBSTRESC" Value="NEGATIVE"/>
<ItemData ItemOID="IT.LB.LBSTNRC" Value="NEGATIVE - NEGATIVE"/>
<ItemData ItemOID="IT.LB.LBNRIND" Value="NORMAL"/>
<ItemData ItemOID="IT.LB.LBSPEC" Value="URINE"/>
<ItemData ItemOID="IT.LB.LBFAST" Value="N"/>
<ItemData ItemOID="IT.LB.VISITNUM" Value="10"/>
<ItemData ItemOID="IT.LB.VISIT" Value="WEEK 24"/>
<ItemData ItemOID="IT.LB.VISITDY" Value="169"/>
<ItemData ItemOID="IT.LB.LBDTC" Value="2003-10-13T11:55"/>
<ItemData ItemOID="IT.LB.LBDY" Value="168"/>
</ItemGroupData>
<ItemGroupData ItemGroupOID="IG.LB" data:ItemGroupDataSeq="17">
<ItemData ItemOID="IT.STUDYID" Value="CDISC01"/>
<ItemData ItemOID="IT.LB.DOMAIN" Value="LB"/>
<ItemData ItemOID="IT.USUBJID" Value="CDISC01.100008"/>
<ItemData ItemOID="IT.LB.LBSEQ" Value="17"/>
<ItemData ItemOID="IT.LB.LBREFID" Value="B232115"/>
<ItemData ItemOID="IT.LB.LBTESTCD" Value="PH"/>
<ItemData ItemOID="IT.LB.LBTEST" Value="pH"/>
<ItemData ItemOID="IT.LB.LBCAT" Value="URINALYSIS"/>
<ItemData ItemOID="IT.LB.LBORRES" Value="8.0"/>
<ItemData ItemOID="IT.LB.LBORNRLO" Value="5.0"/>
<ItemData ItemOID="IT.LB.LBORNRHI" Value="8.0"/>
<ItemData ItemOID="IT.LB.LBSTRESC" Value="8"/>
<ItemData ItemOID="IT.LB.LBSTRESN" Value="8"/>
<ItemData ItemOID="IT.LB.LBSTNRLO" Value="5"/>
<ItemData ItemOID="IT.LB.LBSTNRHI" Value="8"/>
<ItemData ItemOID="IT.LB.LBNRIND" Value="NORMAL"/>
<ItemData ItemOID="IT.LB.LBSPEC" Value="URINE"/>
<ItemData ItemOID="IT.LB.LBBLFL" Value="Y"/>
<ItemData ItemOID="IT.LB.LBFAST" Value="N"/>
<ItemData ItemOID="IT.LB.VISITNUM" Value="1"/>
<ItemData ItemOID="IT.LB.VISIT" Value="SCREEN"/>
<ItemData ItemOID="IT.LB.VISITDY" Value="-13"/>
<ItemData ItemOID="IT.LB.LBDTC" Value="2003-04-15T11:20"/>
<ItemData ItemOID="IT.LB.LBDY" Value="-14"/>
</ItemGroupData>
<ItemGroupData ItemGroupOID="IG.LB" data:ItemGroupDataSeq="18">
<ItemData ItemOID="IT.STUDYID" Value="CDISC01"/>
<ItemData ItemOID="IT.LB.DOMAIN" Value="LB"/>
<ItemData ItemOID="IT.USUBJID" Value="CDISC01.100008"/>
<ItemData ItemOID="IT.LB.LBSEQ" Value="18"/>
<ItemData ItemOID="IT.LB.LBREFID" Value="B290028"/>
<ItemData ItemOID="IT.LB.LBTESTCD" Value="PH"/>
<ItemData ItemOID="IT.LB.LBTEST" Value="pH"/>
<ItemData ItemOID="IT.LB.LBCAT" Value="URINALYSIS"/>
<ItemData ItemOID="IT.LB.LBORRES" Value="8.0"/>
<ItemData ItemOID="IT.LB.LBORNRLO" Value="5.0"/>
<ItemData ItemOID="IT.LB.LBORNRHI" Value="8.0"/>
<ItemData ItemOID="IT.LB.LBSTRESC" Value="8"/>
<ItemData ItemOID="IT.LB.LBSTRESN" Value="8"/>
<ItemData ItemOID="IT.LB.LBSTNRLO" Value="5"/>
<ItemData ItemOID="IT.LB.LBSTNRHI" Value="8"/>
<ItemData ItemOID="IT.LB.LBNRIND" Value="NORMAL"/>
<ItemData ItemOID="IT.LB.LBSPEC" Value="URINE"/>
<ItemData ItemOID="IT.LB.LBFAST" Value="N"/>
<ItemData ItemOID="IT.LB.VISITNUM" Value="10"/>
<ItemData ItemOID="IT.LB.VISIT" Value="WEEK 24"/>
<ItemData ItemOID="IT.LB.VISITDY" Value="169"/>
<ItemData ItemOID="IT.LB.LBDTC" Value="2003-10-13T11:55"/>
<ItemData ItemOID="IT.LB.LBDY" Value="168"/>
</ItemGroupData>
<ItemGroupData ItemGroupOID="IG.LB" data:ItemGroupDataSeq="19">
<ItemData ItemOID="IT.STUDYID" Value="CDISC01"/>
<ItemData ItemOID="IT.LB.DOMAIN" Value="LB"/>
<ItemData ItemOID="IT.USUBJID" Value="CDISC01.100008"/>
<ItemData ItemOID="IT.LB.LBSEQ" Value="19"/>
<ItemData ItemOID="IT.LB.LBREFID" Value="B232115"/>
<ItemData ItemOID="IT.LB.LBTESTCD" Value="GLUC"/>
<ItemData ItemOID="IT.LB.LBTEST" Value="Glucose"/>
<ItemData ItemOID="IT.LB.LBCAT" Value="URINALYSIS"/>
<ItemData ItemOID="IT.LB.LBORRES" Value="NEGATIVE"/>
<ItemData ItemOID="IT.LB.LBSTRESC" Value="NEGATIVE"/>
<ItemData ItemOID="IT.LB.LBSTNRC" Value="NEGATIVE TO TRACE"/>
<ItemData ItemOID="IT.LB.LBNRIND" Value="NORMAL"/>
<ItemData ItemOID="IT.LB.LBSPEC" Value="URINE"/>
<ItemData ItemOID="IT.LB.LBMETHOD" Value="DIPSTICK"/>
<ItemData ItemOID="IT.LB.LBBLFL" Value="Y"/>
<ItemData ItemOID="IT.LB.LBFAST" Value="N"/>
<ItemData ItemOID="IT.LB.VISITNUM" Value="1"/>
<ItemData ItemOID="IT.LB.VISIT" Value="SCREEN"/>
<ItemData ItemOID="IT.LB.VISITDY" Value="-13"/>
<ItemData ItemOID="IT.LB.LBDTC" Value="2003-04-15T11:20"/>
<ItemData ItemOID="IT.LB.LBDY" Value="-14"/>
</ItemGroupData>
<ItemGroupData ItemGroupOID="IG.LB" data:ItemGroupDataSeq="20">
<ItemData ItemOID="IT.STUDYID" Value="CDISC01"/>
<ItemData ItemOID="IT.LB.DOMAIN" Value="LB"/>
<ItemData ItemOID="IT.USUBJID" Value="CDISC01.100008"/>
<ItemData ItemOID="IT.LB.LBSEQ" Value="20"/>
<ItemData ItemOID="IT.LB.LBREFID" Value="B290028"/>
<ItemData ItemOID="IT.LB.LBTESTCD" Value="GLUC"/>
<ItemData ItemOID="IT.LB.LBTEST" Value="Glucose"/>
<ItemData ItemOID="IT.LB.LBCAT" Value="URINALYSIS"/>
<ItemData ItemOID="IT.LB.LBORRES" Value="TRACE"/>
<ItemData ItemOID="IT.LB.LBSTRESC" Value="TRACE"/>
<ItemData ItemOID="IT.LB.LBSTNRC" Value="NEGATIVE TO TRACE"/>
<ItemData ItemOID="IT.LB.LBNRIND" Value="NORMAL"/>
<ItemData ItemOID="IT.LB.LBSPEC" Value="URINE"/>
<ItemData ItemOID="IT.LB.LBMETHOD" Value="DIPSTICK"/>
<ItemData ItemOID="IT.LB.LBFAST" Value="N"/>
<ItemData ItemOID="IT.LB.VISITNUM" Value="10"/>
<ItemData ItemOID="IT.LB.VISIT" Value="WEEK 24"/>
<ItemData ItemOID="IT.LB.VISITDY" Value="169"/>
<ItemData ItemOID="IT.LB.LBDTC" Value="2003-10-13T11:55"/>
<ItemData ItemOID="IT.LB.LBDY" Value="168"/>
</ItemGroupData>
<ItemGroupData ItemGroupOID="IG.LB" data:ItemGroupDataSeq="21">
<ItemData ItemOID="IT.STUDYID" Value="CDISC01"/>
<ItemData ItemOID="IT.LB.DOMAIN" Value="LB"/>
<ItemData ItemOID="IT.USUBJID" Value="CDISC01.100008"/>
<ItemData ItemOID="IT.LB.LBSEQ" Value="21"/>
<ItemData ItemOID="IT.LB.LBREFID" Value="B232115"/>
<ItemData ItemOID="IT.LB.LBTESTCD" Value="GLUC"/>
<ItemData ItemOID="IT.LB.LBTEST" Value="Glucose"/>
<ItemData ItemOID="IT.LB.LBCAT" Value="URINALYSIS"/>
<ItemData ItemOID="IT.LB.LBORRES" Value="10"/>
<ItemData ItemOID="IT.LB.LBORRESU" Value="mg/dL"/>
<ItemData ItemOID="IT.LB.LBORNRLO" Value="0"/>
<ItemData ItemOID="IT.LB.LBORNRHI" Value="30"/>
<ItemData ItemOID="IT.LB.LBSTRESC" Value="0.6"/>
<ItemData ItemOID="IT.LB.LBSTRESN" Value="0.6"/>
<ItemData ItemOID="IT.LB.LBSTRESU" Value="mmol/L"/>
<ItemData ItemOID="IT.LB.LBSTNRLO" Value="0"/>
<ItemData ItemOID="IT.LB.LBSTNRHI" Value="1.7"/>
<ItemData ItemOID="IT.LB.LBNRIND" Value="NORMAL"/>
<ItemData ItemOID="IT.LB.LBSPEC" Value="URINE"/>
<ItemData ItemOID="IT.LB.LBMETHOD" Value="QUANT"/>
<ItemData ItemOID="IT.LB.LBBLFL" Value="Y"/>
<ItemData ItemOID="IT.LB.LBFAST" Value="N"/>
<ItemData ItemOID="IT.LB.VISITNUM" Value="1"/>
<ItemData ItemOID="IT.LB.VISIT" Value="SCREEN"/>
<ItemData ItemOID="IT.LB.VISITDY" Value="-13"/>
<ItemData ItemOID="IT.LB.LBDTC" Value="2003-04-15T11:20"/>
<ItemData ItemOID="IT.LB.LBDY" Value="-14"/>
</ItemGroupData>
<ItemGroupData ItemGroupOID="IG.LB" data:ItemGroupDataSeq="22">
<ItemData ItemOID="IT.STUDYID" Value="CDISC01"/>
<ItemData ItemOID="IT.LB.DOMAIN" Value="LB"/>
<ItemData ItemOID="IT.USUBJID" Value="CDISC01.100008"/>
<ItemData ItemOID="IT.LB.LBSEQ" Value="22"/>
<ItemData ItemOID="IT.LB.LBREFID" Value="B290028"/>
<ItemData ItemOID="IT.LB.LBTESTCD" Value="GLUC"/>
<ItemData ItemOID="IT.LB.LBTEST" Value="Glucose"/>
<ItemData ItemOID="IT.LB.LBCAT" Value="URINALYSIS"/>
<ItemData ItemOID="IT.LB.LBORRES" Value="30"/>
<ItemData ItemOID="IT.LB.LBORRESU" Value="mg/dL"/>
<ItemData ItemOID="IT.LB.LBORNRLO" Value="0"/>
<ItemData ItemOID="IT.LB.LBORNRHI" Value="30"/>
<ItemData ItemOID="IT.LB.LBSTRESC" Value="1.7"/>
<ItemData ItemOID="IT.LB.LBSTRESN" Value="1.7"/>
<ItemData ItemOID="IT.LB.LBSTRESU" Value="mmol/L"/>
<ItemData ItemOID="IT.LB.LBSTNRLO" Value="0"/>
<ItemData ItemOID="IT.LB.LBSTNRHI" Value="1.7"/>
<ItemData ItemOID="IT.LB.LBNRIND" Value="NORMAL"/>
<ItemData ItemOID="IT.LB.LBSPEC" Value="URINE"/>
<ItemData ItemOID="IT.LB.LBMETHOD" Value="QUANT"/>
<ItemData ItemOID="IT.LB.LBFAST" Value="N"/>
<ItemData ItemOID="IT.LB.VISITNUM" Value="10"/>
<ItemData ItemOID="IT.LB.VISIT" Value="WEEK 24"/>
<ItemData ItemOID="IT.LB.VISITDY" Value="169"/>
<ItemData ItemOID="IT.LB.LBDTC" Value="2003-10-13T11:55"/>
<ItemData ItemOID="IT.LB.LBDY" Value="168"/>
</ItemGroupData>
<ItemGroupData ItemGroupOID="IG.LB" data:ItemGroupDataSeq="23">
<ItemData ItemOID="IT.STUDYID" Value="CDISC01"/>
<ItemData ItemOID="IT.LB.DOMAIN" Value="LB"/>
<ItemData ItemOID="IT.USUBJID" Value="CDISC01.100014"/>
<ItemData ItemOID="IT.LB.LBSEQ" Value="1"/>
<ItemData ItemOID="IT.LB.LBREFID" Value="B287871"/>
<ItemData ItemOID="IT.LB.LBTESTCD" Value="BILI"/>
<ItemData ItemOID="IT.LB.LBTEST" Value="Bilirubin"/>
<ItemData ItemOID="IT.LB.LBCAT" Value="CHEMISTRY"/>
<ItemData ItemOID="IT.LB.LBORRES" Value="0.3"/>
<ItemData ItemOID="IT.LB.LBORRESU" Value="mg/dL"/>
<ItemData ItemOID="IT.LB.LBORNRLO" Value=".0"/>
<ItemData ItemOID="IT.LB.LBORNRHI" Value="1.1"/>
<ItemData ItemOID="IT.LB.LBSTRESC" Value="5.1"/>
<ItemData ItemOID="IT.LB.LBSTRESN" Value="5.1"/>
<ItemData ItemOID="IT.LB.LBSTRESU" Value="umol/L"/>
<ItemData ItemOID="IT.LB.LBSTNRLO" Value="0"/>
<ItemData ItemOID="IT.LB.LBSTNRHI" Value="18.8"/>
<ItemData ItemOID="IT.LB.LBNRIND" Value="NORMAL"/>
<ItemData ItemOID="IT.LB.LBSPEC" Value="BLOOD"/>
<ItemData ItemOID="IT.LB.LBBLFL" Value="Y"/>
<ItemData ItemOID="IT.LB.LBFAST" Value="N"/>
<ItemData ItemOID="IT.LB.VISITNUM" Value="1"/>
<ItemData ItemOID="IT.LB.VISIT" Value="SCREEN"/>
<ItemData ItemOID="IT.LB.VISITDY" Value="-13"/>
<ItemData ItemOID="IT.LB.LBDTC" Value="2003-10-06T11:30"/>
<ItemData ItemOID="IT.LB.LBDY" Value="-9"/>
</ItemGroupData>
<ItemGroupData ItemGroupOID="IG.LB" data:ItemGroupDataSeq="24">
<ItemData ItemOID="IT.STUDYID" Value="CDISC01"/>
<ItemData ItemOID="IT.LB.DOMAIN" Value="LB"/>
<ItemData ItemOID="IT.USUBJID" Value="CDISC01.100014"/>
<ItemData ItemOID="IT.LB.LBSEQ" Value="2"/>
<ItemData ItemOID="IT.LB.LBREFID" Value="B357932"/>
<ItemData ItemOID="IT.LB.LBTESTCD" Value="BILI"/>
<ItemData ItemOID="IT.LB.LBTEST" Value="Bilirubin"/>
<ItemData ItemOID="IT.LB.LBCAT" Value="CHEMISTRY"/>
<ItemData ItemOID="IT.LB.LBORRES" Value="0.2"/>
<ItemData ItemOID="IT.LB.LBORRESU" Value="mg/dL"/>
<ItemData ItemOID="IT.LB.LBORNRLO" Value=".0"/>
<ItemData ItemOID="IT.LB.LBORNRHI" Value="1.1"/>
<ItemData ItemOID="IT.LB.LBSTRESC" Value="3.4"/>
<ItemData ItemOID="IT.LB.LBSTRESN" Value="3.4"/>
<ItemData ItemOID="IT.LB.LBSTRESU" Value="umol/L"/>
<ItemData ItemOID="IT.LB.LBSTNRLO" Value="0"/>
<ItemData ItemOID="IT.LB.LBSTNRHI" Value="18.8"/>
<ItemData ItemOID="IT.LB.LBNRIND" Value="NORMAL"/>
<ItemData ItemOID="IT.LB.LBSPEC" Value="BLOOD"/>
<ItemData ItemOID="IT.LB.LBFAST" Value="N"/>
<ItemData ItemOID="IT.LB.VISITNUM" Value="10"/>
<ItemData ItemOID="IT.LB.VISIT" Value="WEEK 24"/>
<ItemData ItemOID="IT.LB.VISITDY" Value="169"/>
<ItemData ItemOID="IT.LB.LBDTC" Value="2004-03-30T14:50"/>
<ItemData ItemOID="IT.LB.LBDY" Value="168"/>
</ItemGroupData>
<ItemGroupData ItemGroupOID="IG.LB" data:ItemGroupDataSeq="25">
<ItemData ItemOID="IT.STUDYID" Value="CDISC01"/>
<ItemData ItemOID="IT.LB.DOMAIN" Value="LB"/>
<ItemData ItemOID="IT.USUBJID" Value="CDISC01.100014"/>
<ItemData ItemOID="IT.LB.LBSEQ" Value="3"/>
<ItemData ItemOID="IT.LB.LBREFID" Value="B287871"/>
<ItemData ItemOID="IT.LB.LBTESTCD" Value="BUN"/>
<ItemData ItemOID="IT.LB.LBTEST" Value="Blood Urea Nitrogen"/>
<ItemData ItemOID="IT.LB.LBCAT" Value="CHEMISTRY"/>
<ItemData ItemOID="IT.LB.LBORRES" Value="16"/>
<ItemData ItemOID="IT.LB.LBORRESU" Value="mg/dL"/>
<ItemData ItemOID="IT.LB.LBORNRLO" Value="9"/>
<ItemData ItemOID="IT.LB.LBORNRHI" Value="24"/>
<ItemData ItemOID="IT.LB.LBSTRESC" Value="5.71"/>
<ItemData ItemOID="IT.LB.LBSTRESN" Value="5.71"/>
<ItemData ItemOID="IT.LB.LBSTRESU" Value="mmol/L"/>
<ItemData ItemOID="IT.LB.LBSTNRLO" Value="3.21"/>
<ItemData ItemOID="IT.LB.LBSTNRHI" Value="8.57"/>
<ItemData ItemOID="IT.LB.LBNRIND" Value="NORMAL"/>
<ItemData ItemOID="IT.LB.LBSPEC" Value="BLOOD"/>
<ItemData ItemOID="IT.LB.LBBLFL" Value="Y"/>
<ItemData ItemOID="IT.LB.LBFAST" Value="N"/>
<ItemData ItemOID="IT.LB.VISITNUM" Value="1"/>
<ItemData ItemOID="IT.LB.VISIT" Value="SCREEN"/>
<ItemData ItemOID="IT.LB.VISITDY" Value="-13"/>
<ItemData ItemOID="IT.LB.LBDTC" Value="2003-10-06T11:30"/>
<ItemData ItemOID="IT.LB.LBDY" Value="-9"/>
</ItemGroupData>
<ItemGroupData ItemGroupOID="IG.LB" data:ItemGroupDataSeq="26">
<ItemData ItemOID="IT.STUDYID" Value="CDISC01"/>
<ItemData ItemOID="IT.LB.DOMAIN" Value="LB"/>
<ItemData ItemOID="IT.USUBJID" Value="CDISC01.100014"/>
<ItemData ItemOID="IT.LB.LBSEQ" Value="4"/>
<ItemData ItemOID="IT.LB.LBREFID" Value="B357932"/>
<ItemData ItemOID="IT.LB.LBTESTCD" Value="BUN"/>
<ItemData ItemOID="IT.LB.LBTEST" Value="Blood Urea Nitrogen"/>
<ItemData ItemOID="IT.LB.LBCAT" Value="CHEMISTRY"/>
<ItemData ItemOID="IT.LB.LBORRES" Value="14"/>
<ItemData ItemOID="IT.LB.LBORRESU" Value="mg/dL"/>
<ItemData ItemOID="IT.LB.LBORNRLO" Value="9"/>
<ItemData ItemOID="IT.LB.LBORNRHI" Value="24"/>
<ItemData ItemOID="IT.LB.LBSTRESC" Value="5"/>
<ItemData ItemOID="IT.LB.LBSTRESN" Value="5"/>
<ItemData ItemOID="IT.LB.LBSTRESU" Value="mmol/L"/>
<ItemData ItemOID="IT.LB.LBSTNRLO" Value="3.21"/>
<ItemData ItemOID="IT.LB.LBSTNRHI" Value="8.57"/>
<ItemData ItemOID="IT.LB.LBNRIND" Value="NORMAL"/>
<ItemData ItemOID="IT.LB.LBSPEC" Value="BLOOD"/>
<ItemData ItemOID="IT.LB.LBFAST" Value="N"/>
<ItemData ItemOID="IT.LB.VISITNUM" Value="10"/>
<ItemData ItemOID="IT.LB.VISIT" Value="WEEK 24"/>
<ItemData ItemOID="IT.LB.VISITDY" Value="169"/>
<ItemData ItemOID="IT.LB.LBDTC" Value="2004-03-30T14:50"/>
<ItemData ItemOID="IT.LB.LBDY" Value="168"/>
</ItemGroupData>
<ItemGroupData ItemGroupOID="IG.LB" data:ItemGroupDataSeq="27">
<ItemData ItemOID="IT.STUDYID" Value="CDISC01"/>
<ItemData ItemOID="IT.LB.DOMAIN" Value="LB"/>
<ItemData ItemOID="IT.USUBJID" Value="CDISC01.100014"/>
<ItemData ItemOID="IT.LB.LBSEQ" Value="5"/>
<ItemData ItemOID="IT.LB.LBREFID" Value="B287871"/>
<ItemData ItemOID="IT.LB.LBTESTCD" Value="GLUC"/>
<ItemData ItemOID="IT.LB.LBTEST" Value="Glucose"/>
<ItemData ItemOID="IT.LB.LBCAT" Value="CHEMISTRY"/>
<ItemData ItemOID="IT.LB.LBORRES" Value="115"/>
<ItemData ItemOID="IT.LB.LBORRESU" Value="mg/dL"/>
<ItemData ItemOID="IT.LB.LBORNRLO" Value="68"/>
<ItemData ItemOID="IT.LB.LBORNRHI" Value="110"/>
<ItemData ItemOID="IT.LB.LBSTRESC" Value="6.4"/>
<ItemData ItemOID="IT.LB.LBSTRESN" Value="6.4"/>
<ItemData ItemOID="IT.LB.LBSTRESU" Value="mmol/L"/>
<ItemData ItemOID="IT.LB.LBSTNRLO" Value="3.8"/>
<ItemData ItemOID="IT.LB.LBSTNRHI" Value="6.1"/>
<ItemData ItemOID="IT.LB.LBNRIND" Value="HIGH"/>
<ItemData ItemOID="IT.LB.LBSPEC" Value="BLOOD"/>
<ItemData ItemOID="IT.LB.LBBLFL" Value="Y"/>
<ItemData ItemOID="IT.LB.LBFAST" Value="N"/>
<ItemData ItemOID="IT.LB.VISITNUM" Value="1"/>
<ItemData ItemOID="IT.LB.VISIT" Value="SCREEN"/>
<ItemData ItemOID="IT.LB.VISITDY" Value="-13"/>
<ItemData ItemOID="IT.LB.LBDTC" Value="2003-10-06T11:30"/>
<ItemData ItemOID="IT.LB.LBDY" Value="-9"/>
</ItemGroupData>
<ItemGroupData ItemGroupOID="IG.LB" data:ItemGroupDataSeq="28">
<ItemData ItemOID="IT.STUDYID" Value="CDISC01"/>
<ItemData ItemOID="IT.LB.DOMAIN" Value="LB"/>
<ItemData ItemOID="IT.USUBJID" Value="CDISC01.100014"/>
<ItemData ItemOID="IT.LB.LBSEQ" Value="6"/>
<ItemData ItemOID="IT.LB.LBREFID" Value="B287871"/>
<ItemData ItemOID="IT.LB.LBTESTCD" Value="VITB12"/>
<ItemData ItemOID="IT.LB.LBTEST" Value="Vitamin B12"/>
<ItemData ItemOID="IT.LB.LBCAT" Value="CHEMISTRY"/>
<ItemData ItemOID="IT.LB.LBORRES" Value="322"/>
<ItemData ItemOID="IT.LB.LBORRESU" Value="pg/mL"/>
<ItemData ItemOID="IT.LB.LBORNRLO" Value="220"/>
<ItemData ItemOID="IT.LB.LBORNRHI" Value="960"/>
<ItemData ItemOID="IT.LB.LBSTRESC" Value="238"/>
<ItemData ItemOID="IT.LB.LBSTRESN" Value="238"/>
<ItemData ItemOID="IT.LB.LBSTRESU" Value="pmol/L"/>
<ItemData ItemOID="IT.LB.LBSTNRLO" Value="162"/>
<ItemData ItemOID="IT.LB.LBSTNRHI" Value="708"/>
<ItemData ItemOID="IT.LB.LBNRIND" Value="NORMAL"/>
<ItemData ItemOID="IT.LB.LBSPEC" Value="SERUM"/>
<ItemData ItemOID="IT.LB.LBBLFL" Value="Y"/>
<ItemData ItemOID="IT.LB.LBFAST" Value="N"/>
<ItemData ItemOID="IT.LB.VISITNUM" Value="1"/>
<ItemData ItemOID="IT.LB.VISIT" Value="SCREEN"/>
<ItemData ItemOID="IT.LB.VISITDY" Value="-13"/>
<ItemData ItemOID="IT.LB.LBDTC" Value="2003-10-06T11:30"/>
<ItemData ItemOID="IT.LB.LBDY" Value="-9"/>
</ItemGroupData>
<ItemGroupData ItemGroupOID="IG.LB" data:ItemGroupDataSeq="29">
<ItemData ItemOID="IT.STUDYID" Value="CDISC01"/>
<ItemData ItemOID="IT.LB.DOMAIN" Value="LB"/>
<ItemData ItemOID="IT.USUBJID" Value="CDISC01.100014"/>
<ItemData ItemOID="IT.LB.LBSEQ" Value="7"/>
<ItemData ItemOID="IT.LB.LBREFID" Value="B287871"/>
<ItemData ItemOID="IT.LB.LBTESTCD" Value="VITB9"/>
<ItemData ItemOID="IT.LB.LBTEST" Value="Vitamin B9"/>
<ItemData ItemOID="IT.LB.LBCAT" Value="CHEMISTRY"/>
<ItemData ItemOID="IT.LB.LBORRES" Value="23.3"/>
<ItemData ItemOID="IT.LB.LBORRESU" Value="ng/dL"/>
<ItemData ItemOID="IT.LB.LBORNRLO" Value="3.0"/>
<ItemData ItemOID="IT.LB.LBORNRHI" Value="17.0"/>
<ItemData ItemOID="IT.LB.LBSTRESC" Value="52.8"/>
<ItemData ItemOID="IT.LB.LBSTRESN" Value="52.8"/>
<ItemData ItemOID="IT.LB.LBSTRESU" Value="nmol/L"/>
<ItemData ItemOID="IT.LB.LBSTNRLO" Value="6.8"/>
<ItemData ItemOID="IT.LB.LBSTNRHI" Value="38.5"/>
<ItemData ItemOID="IT.LB.LBNRIND" Value="HIGH"/>
<ItemData ItemOID="IT.LB.LBSPEC" Value="BLOOD"/>
<ItemData ItemOID="IT.LB.LBBLFL" Value="Y"/>
<ItemData ItemOID="IT.LB.LBFAST" Value="N"/>
<ItemData ItemOID="IT.LB.VISITNUM" Value="1"/>
<ItemData ItemOID="IT.LB.VISIT" Value="SCREEN"/>
<ItemData ItemOID="IT.LB.VISITDY" Value="-13"/>
<ItemData ItemOID="IT.LB.LBDTC" Value="2003-10-06T11:30"/>
<ItemData ItemOID="IT.LB.LBDY" Value="-9"/>
</ItemGroupData>
<ItemGroupData ItemGroupOID="IG.LB" data:ItemGroupDataSeq="30">
<ItemData ItemOID="IT.STUDYID" Value="CDISC01"/>
<ItemData ItemOID="IT.LB.DOMAIN" Value="LB"/>
<ItemData ItemOID="IT.USUBJID" Value="CDISC01.100014"/>
<ItemData ItemOID="IT.LB.LBSEQ" Value="8"/>
<ItemData ItemOID="IT.LB.LBREFID" Value="B287871"/>
<ItemData ItemOID="IT.LB.LBTESTCD" Value="HCT"/>
<ItemData ItemOID="IT.LB.LBTEST" Value="Hematocrit"/>
<ItemData ItemOID="IT.LB.LBCAT" Value="HEMATOLOGY"/>
<ItemData ItemOID="IT.LB.LBORRES" Value="41.9"/>
<ItemData ItemOID="IT.LB.LBORRESU" Value="%"/>
<ItemData ItemOID="IT.LB.LBORNRLO" Value="35.0"/>
<ItemData ItemOID="IT.LB.LBORNRHI" Value="47.0"/>
<ItemData ItemOID="IT.LB.LBSTRESC" Value="0.42"/>
<ItemData ItemOID="IT.LB.LBSTRESN" Value="0.42"/>
<ItemData ItemOID="IT.LB.LBSTNRLO" Value="0.35"/>
<ItemData ItemOID="IT.LB.LBSTNRHI" Value="0.47"/>
<ItemData ItemOID="IT.LB.LBNRIND" Value="NORMAL"/>
<ItemData ItemOID="IT.LB.LBSPEC" Value="BLOOD"/>
<ItemData ItemOID="IT.LB.LBBLFL" Value="Y"/>
<ItemData ItemOID="IT.LB.LBFAST" Value="N"/>
<ItemData ItemOID="IT.LB.VISITNUM" Value="1"/>
<ItemData ItemOID="IT.LB.VISIT" Value="SCREEN"/>
<ItemData ItemOID="IT.LB.VISITDY" Value="-13"/>
<ItemData ItemOID="IT.LB.LBDTC" Value="2003-10-06T11:30"/>
<ItemData ItemOID="IT.LB.LBDY" Value="-9"/>
</ItemGroupData>
<ItemGroupData ItemGroupOID="IG.LB" data:ItemGroupDataSeq="31">
<ItemData ItemOID="IT.STUDYID" Value="CDISC01"/>
<ItemData ItemOID="IT.LB.DOMAIN" Value="LB"/>
<ItemData ItemOID="IT.USUBJID" Value="CDISC01.100014"/>
<ItemData ItemOID="IT.LB.LBSEQ" Value="9"/>
<ItemData ItemOID="IT.LB.LBREFID" Value="B357932"/>
<ItemData ItemOID="IT.LB.LBTESTCD" Value="HCT"/>
<ItemData ItemOID="IT.LB.LBTEST" Value="Hematocrit"/>
<ItemData ItemOID="IT.LB.LBCAT" Value="HEMATOLOGY"/>
<ItemData ItemOID="IT.LB.LBORRES" Value="39.9"/>
<ItemData ItemOID="IT.LB.LBORRESU" Value="%"/>
<ItemData ItemOID="IT.LB.LBORNRLO" Value="35.0"/>
<ItemData ItemOID="IT.LB.LBORNRHI" Value="47.0"/>
<ItemData ItemOID="IT.LB.LBSTRESC" Value="0.40"/>
<ItemData ItemOID="IT.LB.LBSTRESN" Value="0.4"/>
<ItemData ItemOID="IT.LB.LBSTNRLO" Value="0.35"/>
<ItemData ItemOID="IT.LB.LBSTNRHI" Value="0.47"/>
<ItemData ItemOID="IT.LB.LBNRIND" Value="NORMAL"/>
<ItemData ItemOID="IT.LB.LBSPEC" Value="BLOOD"/>
<ItemData ItemOID="IT.LB.LBFAST" Value="N"/>
<ItemData ItemOID="IT.LB.VISITNUM" Value="10"/>
<ItemData ItemOID="IT.LB.VISIT" Value="WEEK 24"/>
<ItemData ItemOID="IT.LB.VISITDY" Value="169"/>
<ItemData ItemOID="IT.LB.LBDTC" Value="2004-03-30T14:50"/>
<ItemData ItemOID="IT.LB.LBDY" Value="168"/>
</ItemGroupData>
<ItemGroupData ItemGroupOID="IG.LB" data:ItemGroupDataSeq="32">
<ItemData ItemOID="IT.STUDYID" Value="CDISC01"/>
<ItemData ItemOID="IT.LB.DOMAIN" Value="LB"/>
<ItemData ItemOID="IT.USUBJID" Value="CDISC01.100014"/>
<ItemData ItemOID="IT.LB.LBSEQ" Value="10"/>
<ItemData ItemOID="IT.LB.LBREFID" Value="B287871"/>
<ItemData ItemOID="IT.LB.LBTESTCD" Value="HGB"/>
<ItemData ItemOID="IT.LB.LBTEST" Value="Hemoglobin"/>
<ItemData ItemOID="IT.LB.LBCAT" Value="HEMATOLOGY"/>
<ItemData ItemOID="IT.LB.LBORRES" Value="13.7"/>
<ItemData ItemOID="IT.LB.LBORRESU" Value="g/dL"/>
<ItemData ItemOID="IT.LB.LBORNRLO" Value="11.5"/>
<ItemData ItemOID="IT.LB.LBORNRHI" Value="15.5"/>
<ItemData ItemOID="IT.LB.LBSTRESC" Value="137"/>
<ItemData ItemOID="IT.LB.LBSTRESN" Value="137"/>
<ItemData ItemOID="IT.LB.LBSTRESU" Value="g/L"/>
<ItemData ItemOID="IT.LB.LBSTNRLO" Value="115"/>
<ItemData ItemOID="IT.LB.LBSTNRHI" Value="155"/>
<ItemData ItemOID="IT.LB.LBNRIND" Value="NORMAL"/>
<ItemData ItemOID="IT.LB.LBSPEC" Value="BLOOD"/>
<ItemData ItemOID="IT.LB.LBBLFL" Value="Y"/>
<ItemData ItemOID="IT.LB.LBFAST" Value="N"/>
<ItemData ItemOID="IT.LB.VISITNUM" Value="1"/>
<ItemData ItemOID="IT.LB.VISIT" Value="SCREEN"/>
<ItemData ItemOID="IT.LB.VISITDY" Value="-13"/>
<ItemData ItemOID="IT.LB.LBDTC" Value="2003-10-06T11:30"/>
<ItemData ItemOID="IT.LB.LBDY" Value="-9"/>
</ItemGroupData>
<ItemGroupData ItemGroupOID="IG.LB" data:ItemGroupDataSeq="33">
<ItemData ItemOID="IT.STUDYID" Value="CDISC01"/>
<ItemData ItemOID="IT.LB.DOMAIN" Value="LB"/>
<ItemData ItemOID="IT.USUBJID" Value="CDISC01.100014"/>
<ItemData ItemOID="IT.LB.LBSEQ" Value="11"/>
<ItemData ItemOID="IT.LB.LBREFID" Value="B357932"/>
<ItemData ItemOID="IT.LB.LBTESTCD" Value="HGB"/>
<ItemData ItemOID="IT.LB.LBTEST" Value="Hemoglobin"/>
<ItemData ItemOID="IT.LB.LBCAT" Value="HEMATOLOGY"/>
<ItemData ItemOID="IT.LB.LBORRES" Value="13.0"/>
<ItemData ItemOID="IT.LB.LBORRESU" Value="g/dL"/>
<ItemData ItemOID="IT.LB.LBORNRLO" Value="11.5"/>
<ItemData ItemOID="IT.LB.LBORNRHI" Value="15.5"/>
<ItemData ItemOID="IT.LB.LBSTRESC" Value="130"/>
<ItemData ItemOID="IT.LB.LBSTRESN" Value="130"/>
<ItemData ItemOID="IT.LB.LBSTRESU" Value="g/L"/>
<ItemData ItemOID="IT.LB.LBSTNRLO" Value="115"/>
<ItemData ItemOID="IT.LB.LBSTNRHI" Value="155"/>
<ItemData ItemOID="IT.LB.LBNRIND" Value="NORMAL"/>
<ItemData ItemOID="IT.LB.LBSPEC" Value="BLOOD"/>
<ItemData ItemOID="IT.LB.LBFAST" Value="N"/>
<ItemData ItemOID="IT.LB.VISITNUM" Value="10"/>
<ItemData ItemOID="IT.LB.VISIT" Value="WEEK 24"/>
<ItemData ItemOID="IT.LB.VISITDY" Value="169"/>
<ItemData ItemOID="IT.LB.LBDTC" Value="2004-03-30T14:50"/>
<ItemData ItemOID="IT.LB.LBDY" Value="168"/>
</ItemGroupData>
<ItemGroupData ItemGroupOID="IG.LB" data:ItemGroupDataSeq="34">
<ItemData ItemOID="IT.STUDYID" Value="CDISC01"/>
<ItemData ItemOID="IT.LB.DOMAIN" Value="LB"/>
<ItemData ItemOID="IT.USUBJID" Value="CDISC01.100014"/>
<ItemData ItemOID="IT.LB.LBSEQ" Value="12"/>
<ItemData ItemOID="IT.LB.LBREFID" Value="B287871"/>
<ItemData ItemOID="IT.LB.LBTESTCD" Value="LYM"/>
<ItemData ItemOID="IT.LB.LBTEST" Value="Lymphocytes"/>
<ItemData ItemOID="IT.LB.LBCAT" Value="HEMATOLOGY"/>
<ItemData ItemOID="IT.LB.LBORRES" Value="1.81"/>
<ItemData ItemOID="IT.LB.LBORRESU" Value="X10^9/L"/>
<ItemData ItemOID="IT.LB.LBORNRLO" Value="1.20"/>
<ItemData ItemOID="IT.LB.LBORNRHI" Value="4.00"/>
<ItemData ItemOID="IT.LB.LBSTRESC" Value="1.81"/>
<ItemData ItemOID="IT.LB.LBSTRESN" Value="1.81"/>
<ItemData ItemOID="IT.LB.LBSTRESU" Value="10**9/L"/>
<ItemData ItemOID="IT.LB.LBSTNRLO" Value="1.2"/>
<ItemData ItemOID="IT.LB.LBSTNRHI" Value="4"/>
<ItemData ItemOID="IT.LB.LBNRIND" Value="NORMAL"/>
<ItemData ItemOID="IT.LB.LBSPEC" Value="BLOOD"/>
<ItemData ItemOID="IT.LB.LBBLFL" Value="Y"/>
<ItemData ItemOID="IT.LB.LBFAST" Value="N"/>
<ItemData ItemOID="IT.LB.VISITNUM" Value="1"/>
<ItemData ItemOID="IT.LB.VISIT" Value="SCREEN"/>
<ItemData ItemOID="IT.LB.VISITDY" Value="-13"/>
<ItemData ItemOID="IT.LB.LBDTC" Value="2003-10-06T11:30"/>
<ItemData ItemOID="IT.LB.LBDY" Value="-9"/>
</ItemGroupData>
<ItemGroupData ItemGroupOID="IG.LB" data:ItemGroupDataSeq="35">
<ItemData ItemOID="IT.STUDYID" Value="CDISC01"/>
<ItemData ItemOID="IT.LB.DOMAIN" Value="LB"/>
<ItemData ItemOID="IT.USUBJID" Value="CDISC01.100014"/>
<ItemData ItemOID="IT.LB.LBSEQ" Value="13"/>
<ItemData ItemOID="IT.LB.LBREFID" Value="B357932"/>
<ItemData ItemOID="IT.LB.LBTESTCD" Value="LYM"/>
<ItemData ItemOID="IT.LB.LBTEST" Value="Lymphocytes"/>
<ItemData ItemOID="IT.LB.LBCAT" Value="HEMATOLOGY"/>
<ItemData ItemOID="IT.LB.LBORRES" Value="1.48"/>
<ItemData ItemOID="IT.LB.LBORRESU" Value="X10^9/L"/>
<ItemData ItemOID="IT.LB.LBORNRLO" Value="1.20"/>
<ItemData ItemOID="IT.LB.LBORNRHI" Value="4.00"/>
<ItemData ItemOID="IT.LB.LBSTRESC" Value="1.48"/>
<ItemData ItemOID="IT.LB.LBSTRESN" Value="1.48"/>
<ItemData ItemOID="IT.LB.LBSTRESU" Value="10**9/L"/>
<ItemData ItemOID="IT.LB.LBSTNRLO" Value="1.2"/>
<ItemData ItemOID="IT.LB.LBSTNRHI" Value="4"/>
<ItemData ItemOID="IT.LB.LBNRIND" Value="NORMAL"/>
<ItemData ItemOID="IT.LB.LBSPEC" Value="BLOOD"/>
<ItemData ItemOID="IT.LB.LBFAST" Value="N"/>
<ItemData ItemOID="IT.LB.VISITNUM" Value="10"/>
<ItemData ItemOID="IT.LB.VISIT" Value="WEEK 24"/>
<ItemData ItemOID="IT.LB.VISITDY" Value="169"/>
<ItemData ItemOID="IT.LB.LBDTC" Value="2004-03-30T14:50"/>
<ItemData ItemOID="IT.LB.LBDY" Value="168"/>
</ItemGroupData>
<ItemGroupData ItemGroupOID="IG.LB" data:ItemGroupDataSeq="36">
<ItemData ItemOID="IT.STUDYID" Value="CDISC01"/>
<ItemData ItemOID="IT.LB.DOMAIN" Value="LB"/>
<ItemData ItemOID="IT.USUBJID" Value="CDISC01.100014"/>
<ItemData ItemOID="IT.LB.LBSEQ" Value="14"/>
<ItemData ItemOID="IT.LB.LBREFID" Value="B287871"/>
<ItemData ItemOID="IT.LB.LBTESTCD" Value="OCCBLD"/>
<ItemData ItemOID="IT.LB.LBTEST" Value="Occult Blood"/>
<ItemData ItemOID="IT.LB.LBCAT" Value="URINALYSIS"/>
<ItemData ItemOID="IT.LB.LBORRES" Value="NEGATIVE"/>
<ItemData ItemOID="IT.LB.LBSTRESC" Value="NEGATIVE"/>
<ItemData ItemOID="IT.LB.LBSTNRC" Value="NEGATIVE - NEGATIVE"/>
<ItemData ItemOID="IT.LB.LBNRIND" Value="NORMAL"/>
<ItemData ItemOID="IT.LB.LBSPEC" Value="URINE"/>
<ItemData ItemOID="IT.LB.LBBLFL" Value="Y"/>
<ItemData ItemOID="IT.LB.LBFAST" Value="N"/>
<ItemData ItemOID="IT.LB.VISITNUM" Value="1"/>
<ItemData ItemOID="IT.LB.VISIT" Value="SCREEN"/>
<ItemData ItemOID="IT.LB.VISITDY" Value="-13"/>
<ItemData ItemOID="IT.LB.LBDTC" Value="2003-10-06T11:30"/>
<ItemData ItemOID="IT.LB.LBDY" Value="-9"/>
</ItemGroupData>
<ItemGroupData ItemGroupOID="IG.LB" data:ItemGroupDataSeq="37">
<ItemData ItemOID="IT.STUDYID" Value="CDISC01"/>
<ItemData ItemOID="IT.LB.DOMAIN" Value="LB"/>
<ItemData ItemOID="IT.USUBJID" Value="CDISC01.100014"/>
<ItemData ItemOID="IT.LB.LBSEQ" Value="15"/>
<ItemData ItemOID="IT.LB.LBREFID" Value="B287871"/>
<ItemData ItemOID="IT.LB.LBTESTCD" Value="PH"/>
<ItemData ItemOID="IT.LB.LBTEST" Value="pH"/>
<ItemData ItemOID="IT.LB.LBCAT" Value="URINALYSIS"/>
<ItemData ItemOID="IT.LB.LBORRES" Value="6.0"/>
<ItemData ItemOID="IT.LB.LBORNRLO" Value="5.0"/>
<ItemData ItemOID="IT.LB.LBORNRHI" Value="8.0"/>
<ItemData ItemOID="IT.LB.LBSTRESC" Value="6"/>
<ItemData ItemOID="IT.LB.LBSTRESN" Value="6"/>
<ItemData ItemOID="IT.LB.LBSTNRLO" Value="5"/>
<ItemData ItemOID="IT.LB.LBSTNRHI" Value="8"/>
<ItemData ItemOID="IT.LB.LBNRIND" Value="NORMAL"/>
<ItemData ItemOID="IT.LB.LBSPEC" Value="URINE"/>
<ItemData ItemOID="IT.LB.LBBLFL" Value="Y"/>
<ItemData ItemOID="IT.LB.LBFAST" Value="N"/>
<ItemData ItemOID="IT.LB.VISITNUM" Value="1"/>
<ItemData ItemOID="IT.LB.VISIT" Value="SCREEN"/>
<ItemData ItemOID="IT.LB.VISITDY" Value="-13"/>
<ItemData ItemOID="IT.LB.LBDTC" Value="2003-10-06T11:30"/>
<ItemData ItemOID="IT.LB.LBDY" Value="-9"/>
</ItemGroupData>
<ItemGroupData ItemGroupOID="IG.LB" data:ItemGroupDataSeq="38">
<ItemData ItemOID="IT.STUDYID" Value="CDISC01"/>
<ItemData ItemOID="IT.LB.DOMAIN" Value="LB"/>
<ItemData ItemOID="IT.USUBJID" Value="CDISC01.100014"/>
<ItemData ItemOID="IT.LB.LBSEQ" Value="16"/>
<ItemData ItemOID="IT.LB.LBREFID" Value="B287871"/>
<ItemData ItemOID="IT.LB.LBTESTCD" Value="GLUC"/>
<ItemData ItemOID="IT.LB.LBTEST" Value="Glucose"/>
<ItemData ItemOID="IT.LB.LBCAT" Value="URINALYSIS"/>
<ItemData ItemOID="IT.LB.LBORRES" Value="1+"/>
<ItemData ItemOID="IT.LB.LBSTRESC" Value="1+"/>
<ItemData ItemOID="IT.LB.LBSTNRC" Value="NEGATIVE TO TRACE"/>
<ItemData ItemOID="IT.LB.LBNRIND" Value="HIGH"/>
<ItemData ItemOID="IT.LB.LBSPEC" Value="URINE"/>
<ItemData ItemOID="IT.LB.LBMETHOD" Value="DIPSTICK"/>
<ItemData ItemOID="IT.LB.LBBLFL" Value="Y"/>
<ItemData ItemOID="IT.LB.LBFAST" Value="N"/>
<ItemData ItemOID="IT.LB.VISITNUM" Value="1"/>
<ItemData ItemOID="IT.LB.VISIT" Value="SCREEN"/>
<ItemData ItemOID="IT.LB.VISITDY" Value="-13"/>
<ItemData ItemOID="IT.LB.LBDTC" Value="2003-10-06T11:30"/>
<ItemData ItemOID="IT.LB.LBDY" Value="-9"/>
</ItemGroupData>
<ItemGroupData ItemGroupOID="IG.LB" data:ItemGroupDataSeq="39">
<ItemData ItemOID="IT.STUDYID" Value="CDISC01"/>
<ItemData ItemOID="IT.LB.DOMAIN" Value="LB"/>
<ItemData ItemOID="IT.USUBJID" Value="CDISC01.100014"/>
<ItemData ItemOID="IT.LB.LBSEQ" Value="17"/>
<ItemData ItemOID="IT.LB.LBREFID" Value="B287871"/>
<ItemData ItemOID="IT.LB.LBTESTCD" Value="GLUC"/>
<ItemData ItemOID="IT.LB.LBTEST" Value="Glucose"/>
<ItemData ItemOID="IT.LB.LBCAT" Value="URINALYSIS"/>
<ItemData ItemOID="IT.LB.LBORRES" Value="35"/>
<ItemData ItemOID="IT.LB.LBORRESU" Value="mg/dL"/>
<ItemData ItemOID="IT.LB.LBORNRLO" Value="0"/>
<ItemData ItemOID="IT.LB.LBORNRHI" Value="30"/>
<ItemData ItemOID="IT.LB.LBSTRESC" Value="1.9"/>
<ItemData ItemOID="IT.LB.LBSTRESN" Value="1.9"/>
<ItemData ItemOID="IT.LB.LBSTRESU" Value="mmol/L"/>
<ItemData ItemOID="IT.LB.LBSTNRLO" Value="0"/>
<ItemData ItemOID="IT.LB.LBSTNRHI" Value="1.7"/>
<ItemData ItemOID="IT.LB.LBNRIND" Value="HIGH"/>
<ItemData ItemOID="IT.LB.LBSPEC" Value="URINE"/>
<ItemData ItemOID="IT.LB.LBMETHOD" Value="QUANT"/>
<ItemData ItemOID="IT.LB.LBBLFL" Value="Y"/>
<ItemData ItemOID="IT.LB.LBFAST" Value="N"/>
<ItemData ItemOID="IT.LB.VISITNUM" Value="1"/>
<ItemData ItemOID="IT.LB.VISIT" Value="SCREEN"/>
<ItemData ItemOID="IT.LB.VISITDY" Value="-13"/>
<ItemData ItemOID="IT.LB.LBDTC" Value="2003-10-06T11:30"/>
<ItemData ItemOID="IT.LB.LBDY" Value="-9"/>
</ItemGroupData>
<ItemGroupData ItemGroupOID="IG.LB" data:ItemGroupDataSeq="40">
<ItemData ItemOID="IT.STUDYID" Value="CDISC01"/>
<ItemData ItemOID="IT.LB.DOMAIN" Value="LB"/>
<ItemData ItemOID="IT.USUBJID" Value="CDISC01.200001"/>
<ItemData ItemOID="IT.LB.LBSEQ" Value="1"/>
<ItemData ItemOID="IT.LB.LBREFID" Value="B279926"/>
<ItemData ItemOID="IT.LB.LBTESTCD" Value="BILI"/>
<ItemData ItemOID="IT.LB.LBTEST" Value="Bilirubin"/>
<ItemData ItemOID="IT.LB.LBCAT" Value="CHEMISTRY"/>
<ItemData ItemOID="IT.LB.LBORRES" Value="0.3"/>
<ItemData ItemOID="IT.LB.LBORRESU" Value="mg/dL"/>
<ItemData ItemOID="IT.LB.LBORNRLO" Value=".0"/>
<ItemData ItemOID="IT.LB.LBORNRHI" Value="1.1"/>
<ItemData ItemOID="IT.LB.LBSTRESC" Value="5.1"/>
<ItemData ItemOID="IT.LB.LBSTRESN" Value="5.1"/>
<ItemData ItemOID="IT.LB.LBSTRESU" Value="umol/L"/>
<ItemData ItemOID="IT.LB.LBSTNRLO" Value="0"/>
<ItemData ItemOID="IT.LB.LBSTNRHI" Value="18.8"/>
<ItemData ItemOID="IT.LB.LBNRIND" Value="NORMAL"/>
<ItemData ItemOID="IT.LB.LBSPEC" Value="BLOOD"/>
<ItemData ItemOID="IT.LB.LBBLFL" Value="Y"/>
<ItemData ItemOID="IT.LB.LBFAST" Value="N"/>
<ItemData ItemOID="IT.LB.VISITNUM" Value="1"/>
<ItemData ItemOID="IT.LB.VISIT" Value="SCREEN"/>
<ItemData ItemOID="IT.LB.VISITDY" Value="-13"/>
<ItemData ItemOID="IT.LB.LBDTC" Value="2003-09-09T11:02"/>
<ItemData ItemOID="IT.LB.LBDY" Value="-21"/>
</ItemGroupData>
<ItemGroupData ItemGroupOID="IG.LB" data:ItemGroupDataSeq="41">
<ItemData ItemOID="IT.STUDYID" Value="CDISC01"/>
<ItemData ItemOID="IT.LB.DOMAIN" Value="LB"/>
<ItemData ItemOID="IT.USUBJID" Value="CDISC01.200001"/>
<ItemData ItemOID="IT.LB.LBSEQ" Value="2"/>
<ItemData ItemOID="IT.LB.LBREFID" Value="B332059"/>
<ItemData ItemOID="IT.LB.LBTESTCD" Value="BILI"/>
<ItemData ItemOID="IT.LB.LBTEST" Value="Bilirubin"/>
<ItemData ItemOID="IT.LB.LBCAT" Value="CHEMISTRY"/>
<ItemData ItemOID="IT.LB.LBORRES" Value="0.3"/>
<ItemData ItemOID="IT.LB.LBORRESU" Value="mg/dL"/>
<ItemData ItemOID="IT.LB.LBORNRLO" Value=".0"/>
<ItemData ItemOID="IT.LB.LBORNRHI" Value="1.1"/>
<ItemData ItemOID="IT.LB.LBSTRESC" Value="5.1"/>
<ItemData ItemOID="IT.LB.LBSTRESN" Value="5.1"/>
<ItemData ItemOID="IT.LB.LBSTRESU" Value="umol/L"/>
<ItemData ItemOID="IT.LB.LBSTNRLO" Value="0"/>
<ItemData ItemOID="IT.LB.LBSTNRHI" Value="18.8"/>
<ItemData ItemOID="IT.LB.LBNRIND" Value="NORMAL"/>
<ItemData ItemOID="IT.LB.LBSPEC" Value="BLOOD"/>
<ItemData ItemOID="IT.LB.LBFAST" Value="N"/>
<ItemData ItemOID="IT.LB.VISITNUM" Value="10"/>
<ItemData ItemOID="IT.LB.VISIT" Value="WEEK 24"/>
<ItemData ItemOID="IT.LB.VISITDY" Value="169"/>
<ItemData ItemOID="IT.LB.LBDTC" Value="2004-02-02T08:58"/>
<ItemData ItemOID="IT.LB.LBDY" Value="126"/>
</ItemGroupData>
<ItemGroupData ItemGroupOID="IG.LB" data:ItemGroupDataSeq="42">
<ItemData ItemOID="IT.STUDYID" Value="CDISC01"/>
<ItemData ItemOID="IT.LB.DOMAIN" Value="LB"/>
<ItemData ItemOID="IT.USUBJID" Value="CDISC01.200001"/>
<ItemData ItemOID="IT.LB.LBSEQ" Value="3"/>
<ItemData ItemOID="IT.LB.LBREFID" Value="B279926"/>
<ItemData ItemOID="IT.LB.LBTESTCD" Value="BUN"/>
<ItemData ItemOID="IT.LB.LBTEST" Value="Blood Urea Nitrogen"/>
<ItemData ItemOID="IT.LB.LBCAT" Value="CHEMISTRY"/>
<ItemData ItemOID="IT.LB.LBORRES" Value="12"/>
<ItemData ItemOID="IT.LB.LBORRESU" Value="mg/dL"/>
<ItemData ItemOID="IT.LB.LBORNRLO" Value="9"/>
<ItemData ItemOID="IT.LB.LBORNRHI" Value="24"/>
<ItemData ItemOID="IT.LB.LBSTRESC" Value="4.28"/>
<ItemData ItemOID="IT.LB.LBSTRESN" Value="4.28"/>
<ItemData ItemOID="IT.LB.LBSTRESU" Value="mmol/L"/>
<ItemData ItemOID="IT.LB.LBSTNRLO" Value="3.21"/>
<ItemData ItemOID="IT.LB.LBSTNRHI" Value="8.57"/>
<ItemData ItemOID="IT.LB.LBNRIND" Value="NORMAL"/>
<ItemData ItemOID="IT.LB.LBSPEC" Value="BLOOD"/>
<ItemData ItemOID="IT.LB.LBBLFL" Value="Y"/>
<ItemData ItemOID="IT.LB.LBFAST" Value="N"/>
<ItemData ItemOID="IT.LB.VISITNUM" Value="1"/>
<ItemData ItemOID="IT.LB.VISIT" Value="SCREEN"/>
<ItemData ItemOID="IT.LB.VISITDY" Value="-13"/>
<ItemData ItemOID="IT.LB.LBDTC" Value="2003-09-09T11:02"/>
<ItemData ItemOID="IT.LB.LBDY" Value="-21"/>
</ItemGroupData>
<ItemGroupData ItemGroupOID="IG.LB" data:ItemGroupDataSeq="43">
<ItemData ItemOID="IT.STUDYID" Value="CDISC01"/>
<ItemData ItemOID="IT.LB.DOMAIN" Value="LB"/>
<ItemData ItemOID="IT.USUBJID" Value="CDISC01.200001"/>
<ItemData ItemOID="IT.LB.LBSEQ" Value="4"/>
<ItemData ItemOID="IT.LB.LBREFID" Value="B332059"/>
<ItemData ItemOID="IT.LB.LBTESTCD" Value="BUN"/>
<ItemData ItemOID="IT.LB.LBTEST" Value="Blood Urea Nitrogen"/>
<ItemData ItemOID="IT.LB.LBCAT" Value="CHEMISTRY"/>
<ItemData ItemOID="IT.LB.LBORRES" Value="15"/>
<ItemData ItemOID="IT.LB.LBORRESU" Value="mg/dL"/>
<ItemData ItemOID="IT.LB.LBORNRLO" Value="9"/>
<ItemData ItemOID="IT.LB.LBORNRHI" Value="24"/>
<ItemData ItemOID="IT.LB.LBSTRESC" Value="5.36"/>
<ItemData ItemOID="IT.LB.LBSTRESN" Value="5.36"/>
<ItemData ItemOID="IT.LB.LBSTRESU" Value="mmol/L"/>
<ItemData ItemOID="IT.LB.LBSTNRLO" Value="3.21"/>
<ItemData ItemOID="IT.LB.LBSTNRHI" Value="8.57"/>
<ItemData ItemOID="IT.LB.LBNRIND" Value="NORMAL"/>
<ItemData ItemOID="IT.LB.LBSPEC" Value="BLOOD"/>
<ItemData ItemOID="IT.LB.LBFAST" Value="N"/>
<ItemData ItemOID="IT.LB.VISITNUM" Value="10"/>
<ItemData ItemOID="IT.LB.VISIT" Value="WEEK 24"/>
<ItemData ItemOID="IT.LB.VISITDY" Value="169"/>
<ItemData ItemOID="IT.LB.LBDTC" Value="2004-02-02T08:58"/>
<ItemData ItemOID="IT.LB.LBDY" Value="126"/>
</ItemGroupData>
<ItemGroupData ItemGroupOID="IG.LB" data:ItemGroupDataSeq="44">
<ItemData ItemOID="IT.STUDYID" Value="CDISC01"/>
<ItemData ItemOID="IT.LB.DOMAIN" Value="LB"/>
<ItemData ItemOID="IT.USUBJID" Value="CDISC01.200001"/>
<ItemData ItemOID="IT.LB.LBSEQ" Value="5"/>
<ItemData ItemOID="IT.LB.LBREFID" Value="B279926"/>
<ItemData ItemOID="IT.LB.LBTESTCD" Value="GLUC"/>
<ItemData ItemOID="IT.LB.LBTEST" Value="Glucose"/>
<ItemData ItemOID="IT.LB.LBCAT" Value="CHEMISTRY"/>
<ItemData ItemOID="IT.LB.LBORRES" Value="94"/>
<ItemData ItemOID="IT.LB.LBORRESU" Value="mg/dL"/>
<ItemData ItemOID="IT.LB.LBORNRLO" Value="68"/>
<ItemData ItemOID="IT.LB.LBORNRHI" Value="110"/>
<ItemData ItemOID="IT.LB.LBSTRESC" Value="5.2"/>
<ItemData ItemOID="IT.LB.LBSTRESN" Value="5.2"/>
<ItemData ItemOID="IT.LB.LBSTRESU" Value="mmol/L"/>
<ItemData ItemOID="IT.LB.LBSTNRLO" Value="3.8"/>
<ItemData ItemOID="IT.LB.LBSTNRHI" Value="6.1"/>
<ItemData ItemOID="IT.LB.LBNRIND" Value="NORMAL"/>
<ItemData ItemOID="IT.LB.LBSPEC" Value="BLOOD"/>
<ItemData ItemOID="IT.LB.LBBLFL" Value="Y"/>
<ItemData ItemOID="IT.LB.LBFAST" Value="Y"/>
<ItemData ItemOID="IT.LB.VISITNUM" Value="1"/>
<ItemData ItemOID="IT.LB.VISIT" Value="SCREEN"/>
<ItemData ItemOID="IT.LB.VISITDY" Value="-13"/>
<ItemData ItemOID="IT.LB.LBDTC" Value="2003-09-09T11:02"/>
<ItemData ItemOID="IT.LB.LBDY" Value="-21"/>
</ItemGroupData>
<ItemGroupData ItemGroupOID="IG.LB" data:ItemGroupDataSeq="45">
<ItemData ItemOID="IT.STUDYID" Value="CDISC01"/>
<ItemData ItemOID="IT.LB.DOMAIN" Value="LB"/>
<ItemData ItemOID="IT.USUBJID" Value="CDISC01.200001"/>
<ItemData ItemOID="IT.LB.LBSEQ" Value="6"/>
<ItemData ItemOID="IT.LB.LBREFID" Value="B332059"/>
<ItemData ItemOID="IT.LB.LBTESTCD" Value="GLUC"/>
<ItemData ItemOID="IT.LB.LBTEST" Value="Glucose"/>
<ItemData ItemOID="IT.LB.LBCAT" Value="CHEMISTRY"/>
<ItemData ItemOID="IT.LB.LBORRES" Value="100"/>
<ItemData ItemOID="IT.LB.LBORRESU" Value="mg/dL"/>
<ItemData ItemOID="IT.LB.LBORNRLO" Value="68"/>
<ItemData ItemOID="IT.LB.LBORNRHI" Value="110"/>
<ItemData ItemOID="IT.LB.LBSTRESC" Value="5.5"/>
<ItemData ItemOID="IT.LB.LBSTRESN" Value="5.5"/>
<ItemData ItemOID="IT.LB.LBSTRESU" Value="mmol/L"/>
<ItemData ItemOID="IT.LB.LBSTNRLO" Value="3.8"/>
<ItemData ItemOID="IT.LB.LBSTNRHI" Value="6.1"/>
<ItemData ItemOID="IT.LB.LBNRIND" Value="NORMAL"/>
<ItemData ItemOID="IT.LB.LBSPEC" Value="BLOOD"/>
<ItemData ItemOID="IT.LB.LBFAST" Value="N"/>
<ItemData ItemOID="IT.LB.VISITNUM" Value="10"/>
<ItemData ItemOID="IT.LB.VISIT" Value="WEEK 24"/>
<ItemData ItemOID="IT.LB.VISITDY" Value="169"/>
<ItemData ItemOID="IT.LB.LBDTC" Value="2004-02-02T08:58"/>
<ItemData ItemOID="IT.LB.LBDY" Value="126"/>
</ItemGroupData>
<ItemGroupData ItemGroupOID="IG.LB" data:ItemGroupDataSeq="46">
<ItemData ItemOID="IT.STUDYID" Value="CDISC01"/>
<ItemData ItemOID="IT.LB.DOMAIN" Value="LB"/>
<ItemData ItemOID="IT.USUBJID" Value="CDISC01.200001"/>
<ItemData ItemOID="IT.LB.LBSEQ" Value="7"/>
<ItemData ItemOID="IT.LB.LBREFID" Value="B279926"/>
<ItemData ItemOID="IT.LB.LBTESTCD" Value="VITB12"/>
<ItemData ItemOID="IT.LB.LBTEST" Value="Vitamin B12"/>
<ItemData ItemOID="IT.LB.LBCAT" Value="CHEMISTRY"/>
<ItemData ItemOID="IT.LB.LBORRES" Value="512"/>
<ItemData ItemOID="IT.LB.LBORRESU" Value="pg/mL"/>
<ItemData ItemOID="IT.LB.LBORNRLO" Value="220"/>
<ItemData ItemOID="IT.LB.LBORNRHI" Value="960"/>
<ItemData ItemOID="IT.LB.LBSTRESC" Value="378"/>
<ItemData ItemOID="IT.LB.LBSTRESN" Value="378"/>
<ItemData ItemOID="IT.LB.LBSTRESU" Value="pmol/L"/>
<ItemData ItemOID="IT.LB.LBSTNRLO" Value="162"/>
<ItemData ItemOID="IT.LB.LBSTNRHI" Value="708"/>
<ItemData ItemOID="IT.LB.LBNRIND" Value="NORMAL"/>
<ItemData ItemOID="IT.LB.LBSPEC" Value="SERUM"/>
<ItemData ItemOID="IT.LB.LBBLFL" Value="Y"/>
<ItemData ItemOID="IT.LB.LBFAST" Value="N"/>
<ItemData ItemOID="IT.LB.VISITNUM" Value="1"/>
<ItemData ItemOID="IT.LB.VISIT" Value="SCREEN"/>
<ItemData ItemOID="IT.LB.VISITDY" Value="-13"/>
<ItemData ItemOID="IT.LB.LBDTC" Value="2003-09-09T11:02"/>
<ItemData ItemOID="IT.LB.LBDY" Value="-21"/>
</ItemGroupData>
<ItemGroupData ItemGroupOID="IG.LB" data:ItemGroupDataSeq="47">
<ItemData ItemOID="IT.STUDYID" Value="CDISC01"/>
<ItemData ItemOID="IT.LB.DOMAIN" Value="LB"/>
<ItemData ItemOID="IT.USUBJID" Value="CDISC01.200001"/>
<ItemData ItemOID="IT.LB.LBSEQ" Value="8"/>
<ItemData ItemOID="IT.LB.LBREFID" Value="B279926"/>
<ItemData ItemOID="IT.LB.LBTESTCD" Value="VITB9"/>
<ItemData ItemOID="IT.LB.LBTEST" Value="Vitamin B9"/>
<ItemData ItemOID="IT.LB.LBCAT" Value="CHEMISTRY"/>
<ItemData ItemOID="IT.LB.LBORRES" Value="42.4"/>
<ItemData ItemOID="IT.LB.LBORRESU" Value="ng/dL"/>
<ItemData ItemOID="IT.LB.LBORNRLO" Value="3.0"/>
<ItemData ItemOID="IT.LB.LBORNRHI" Value="17.0"/>
<ItemData ItemOID="IT.LB.LBSTRESC" Value="96.1"/>
<ItemData ItemOID="IT.LB.LBSTRESN" Value="96.1"/>
<ItemData ItemOID="IT.LB.LBSTRESU" Value="nmol/L"/>
<ItemData ItemOID="IT.LB.LBSTNRLO" Value="6.8"/>
<ItemData ItemOID="IT.LB.LBSTNRHI" Value="38.5"/>
<ItemData ItemOID="IT.LB.LBNRIND" Value="HIGH"/>
<ItemData ItemOID="IT.LB.LBSPEC" Value="BLOOD"/>
<ItemData ItemOID="IT.LB.LBBLFL" Value="Y"/>
<ItemData ItemOID="IT.LB.LBFAST" Value="N"/>
<ItemData ItemOID="IT.LB.VISITNUM" Value="1"/>
<ItemData ItemOID="IT.LB.VISIT" Value="SCREEN"/>
<ItemData ItemOID="IT.LB.VISITDY" Value="-13"/>
<ItemData ItemOID="IT.LB.LBDTC" Value="2003-09-09T11:02"/>
<ItemData ItemOID="IT.LB.LBDY" Value="-21"/>
</ItemGroupData>
<ItemGroupData ItemGroupOID="IG.LB" data:ItemGroupDataSeq="48">
<ItemData ItemOID="IT.STUDYID" Value="CDISC01"/>
<ItemData ItemOID="IT.LB.DOMAIN" Value="LB"/>
<ItemData ItemOID="IT.USUBJID" Value="CDISC01.200001"/>
<ItemData ItemOID="IT.LB.LBSEQ" Value="9"/>
<ItemData ItemOID="IT.LB.LBREFID" Value="B279926"/>
<ItemData ItemOID="IT.LB.LBTESTCD" Value="HCT"/>
<ItemData ItemOID="IT.LB.LBTEST" Value="Hematocrit"/>
<ItemData ItemOID="IT.LB.LBCAT" Value="HEMATOLOGY"/>
<ItemData ItemOID="IT.LB.LBORRES" Value="45.7"/>
<ItemData ItemOID="IT.LB.LBORRESU" Value="%"/>
<ItemData ItemOID="IT.LB.LBORNRLO" Value="35.0"/>
<ItemData ItemOID="IT.LB.LBORNRHI" Value="47.0"/>
<ItemData ItemOID="IT.LB.LBSTRESC" Value="0.46"/>
<ItemData ItemOID="IT.LB.LBSTRESN" Value="0.46"/>
<ItemData ItemOID="IT.LB.LBSTNRLO" Value="0.35"/>
<ItemData ItemOID="IT.LB.LBSTNRHI" Value="0.47"/>
<ItemData ItemOID="IT.LB.LBNRIND" Value="NORMAL"/>
<ItemData ItemOID="IT.LB.LBSPEC" Value="BLOOD"/>
<ItemData ItemOID="IT.LB.LBBLFL" Value="Y"/>
<ItemData ItemOID="IT.LB.LBFAST" Value="N"/>
<ItemData ItemOID="IT.LB.VISITNUM" Value="1"/>
<ItemData ItemOID="IT.LB.VISIT" Value="SCREEN"/>
<ItemData ItemOID="IT.LB.VISITDY" Value="-13"/>
<ItemData ItemOID="IT.LB.LBDTC" Value="2003-09-09T11:02"/>
<ItemData ItemOID="IT.LB.LBDY" Value="-21"/>
</ItemGroupData>
<ItemGroupData ItemGroupOID="IG.LB" data:ItemGroupDataSeq="49">
<ItemData ItemOID="IT.STUDYID" Value="CDISC01"/>
<ItemData ItemOID="IT.LB.DOMAIN" Value="LB"/>
<ItemData ItemOID="IT.USUBJID" Value="CDISC01.200001"/>
<ItemData ItemOID="IT.LB.LBSEQ" Value="10"/>
<ItemData ItemOID="IT.LB.LBREFID" Value="B332059"/>
<ItemData ItemOID="IT.LB.LBTESTCD" Value="HCT"/>
<ItemData ItemOID="IT.LB.LBTEST" Value="Hematocrit"/>
<ItemData ItemOID="IT.LB.LBCAT" Value="HEMATOLOGY"/>
<ItemData ItemOID="IT.LB.LBORRES" Value="42.8"/>
<ItemData ItemOID="IT.LB.LBORRESU" Value="%"/>
<ItemData ItemOID="IT.LB.LBORNRLO" Value="35.0"/>
<ItemData ItemOID="IT.LB.LBORNRHI" Value="47.0"/>
<ItemData ItemOID="IT.LB.LBSTRESC" Value="0.43"/>
<ItemData ItemOID="IT.LB.LBSTRESN" Value="0.43"/>
<ItemData ItemOID="IT.LB.LBSTNRLO" Value="0.35"/>
<ItemData ItemOID="IT.LB.LBSTNRHI" Value="0.47"/>
<ItemData ItemOID="IT.LB.LBNRIND" Value="NORMAL"/>
<ItemData ItemOID="IT.LB.LBSPEC" Value="BLOOD"/>
<ItemData ItemOID="IT.LB.LBFAST" Value="N"/>
<ItemData ItemOID="IT.LB.VISITNUM" Value="10"/>
<ItemData ItemOID="IT.LB.VISIT" Value="WEEK 24"/>
<ItemData ItemOID="IT.LB.VISITDY" Value="169"/>
<ItemData ItemOID="IT.LB.LBDTC" Value="2004-02-02T08:58"/>
<ItemData ItemOID="IT.LB.LBDY" Value="126"/>
</ItemGroupData>
<ItemGroupData ItemGroupOID="IG.LB" data:ItemGroupDataSeq="50">
<ItemData ItemOID="IT.STUDYID" Value="CDISC01"/>
<ItemData ItemOID="IT.LB.DOMAIN" Value="LB"/>
<ItemData ItemOID="IT.USUBJID" Value="CDISC01.200001"/>
<ItemData ItemOID="IT.LB.LBSEQ" Value="11"/>
<ItemData ItemOID="IT.LB.LBREFID" Value="B279926"/>
<ItemData ItemOID="IT.LB.LBTESTCD" Value="HGB"/>
<ItemData ItemOID="IT.LB.LBTEST" Value="Hemoglobin"/>
<ItemData ItemOID="IT.LB.LBCAT" Value="HEMATOLOGY"/>
<ItemData ItemOID="IT.LB.LBORRES" Value="14.0"/>
<ItemData ItemOID="IT.LB.LBORRESU" Value="g/dL"/>
<ItemData ItemOID="IT.LB.LBORNRLO" Value="11.5"/>
<ItemData ItemOID="IT.LB.LBORNRHI" Value="15.5"/>
<ItemData ItemOID="IT.LB.LBSTRESC" Value="140"/>
<ItemData ItemOID="IT.LB.LBSTRESN" Value="140"/>
<ItemData ItemOID="IT.LB.LBSTRESU" Value="g/L"/>
<ItemData ItemOID="IT.LB.LBSTNRLO" Value="115"/>
<ItemData ItemOID="IT.LB.LBSTNRHI" Value="155"/>
<ItemData ItemOID="IT.LB.LBNRIND" Value="NORMAL"/>
<ItemData ItemOID="IT.LB.LBSPEC" Value="BLOOD"/>
<ItemData ItemOID="IT.LB.LBBLFL" Value="Y"/>
<ItemData ItemOID="IT.LB.LBFAST" Value="N"/>
<ItemData ItemOID="IT.LB.VISITNUM" Value="1"/>
<ItemData ItemOID="IT.LB.VISIT" Value="SCREEN"/>
<ItemData ItemOID="IT.LB.VISITDY" Value="-13"/>
<ItemData ItemOID="IT.LB.LBDTC" Value="2003-09-09T11:02"/>
<ItemData ItemOID="IT.LB.LBDY" Value="-21"/>
</ItemGroupData>
<ItemGroupData ItemGroupOID="IG.LB" data:ItemGroupDataSeq="51">
<ItemData ItemOID="IT.STUDYID" Value="CDISC01"/>
<ItemData ItemOID="IT.LB.DOMAIN" Value="LB"/>
<ItemData ItemOID="IT.USUBJID" Value="CDISC01.200001"/>
<ItemData ItemOID="IT.LB.LBSEQ" Value="12"/>
<ItemData ItemOID="IT.LB.LBREFID" Value="B332059"/>
<ItemData ItemOID="IT.LB.LBTESTCD" Value="HGB"/>
<ItemData ItemOID="IT.LB.LBTEST" Value="Hemoglobin"/>
<ItemData ItemOID="IT.LB.LBCAT" Value="HEMATOLOGY"/>
<ItemData ItemOID="IT.LB.LBORRES" Value="13.5"/>
<ItemData ItemOID="IT.LB.LBORRESU" Value="g/dL"/>
<ItemData ItemOID="IT.LB.LBORNRLO" Value="11.5"/>
<ItemData ItemOID="IT.LB.LBORNRHI" Value="15.5"/>
<ItemData ItemOID="IT.LB.LBSTRESC" Value="135"/>
<ItemData ItemOID="IT.LB.LBSTRESN" Value="135"/>
<ItemData ItemOID="IT.LB.LBSTRESU" Value="g/L"/>
<ItemData ItemOID="IT.LB.LBSTNRLO" Value="115"/>
<ItemData ItemOID="IT.LB.LBSTNRHI" Value="155"/>
<ItemData ItemOID="IT.LB.LBNRIND" Value="NORMAL"/>
<ItemData ItemOID="IT.LB.LBSPEC" Value="BLOOD"/>
<ItemData ItemOID="IT.LB.LBFAST" Value="N"/>
<ItemData ItemOID="IT.LB.VISITNUM" Value="10"/>
<ItemData ItemOID="IT.LB.VISIT" Value="WEEK 24"/>
<ItemData ItemOID="IT.LB.VISITDY" Value="169"/>
<ItemData ItemOID="IT.LB.LBDTC" Value="2004-02-02T08:58"/>
<ItemData ItemOID="IT.LB.LBDY" Value="126"/>
</ItemGroupData>
<ItemGroupData ItemGroupOID="IG.LB" data:ItemGroupDataSeq="52">
<ItemData ItemOID="IT.STUDYID" Value="CDISC01"/>
<ItemData ItemOID="IT.LB.DOMAIN" Value="LB"/>
<ItemData ItemOID="IT.USUBJID" Value="CDISC01.200001"/>
<ItemData ItemOID="IT.LB.LBSEQ" Value="13"/>
<ItemData ItemOID="IT.LB.LBREFID" Value="B279926"/>
<ItemData ItemOID="IT.LB.LBTESTCD" Value="LYM"/>
<ItemData ItemOID="IT.LB.LBTEST" Value="Lymphocytes"/>
<ItemData ItemOID="IT.LB.LBCAT" Value="HEMATOLOGY"/>
<ItemData ItemOID="IT.LB.LBORRES" Value="1.29"/>
<ItemData ItemOID="IT.LB.LBORRESU" Value="X10^9/L"/>
<ItemData ItemOID="IT.LB.LBORNRLO" Value="1.20"/>
<ItemData ItemOID="IT.LB.LBORNRHI" Value="4.00"/>
<ItemData ItemOID="IT.LB.LBSTRESC" Value="1.29"/>
<ItemData ItemOID="IT.LB.LBSTRESN" Value="1.29"/>
<ItemData ItemOID="IT.LB.LBSTRESU" Value="10**9/L"/>
<ItemData ItemOID="IT.LB.LBSTNRLO" Value="1.2"/>
<ItemData ItemOID="IT.LB.LBSTNRHI" Value="4"/>
<ItemData ItemOID="IT.LB.LBNRIND" Value="NORMAL"/>
<ItemData ItemOID="IT.LB.LBSPEC" Value="BLOOD"/>
<ItemData ItemOID="IT.LB.LBBLFL" Value="Y"/>
<ItemData ItemOID="IT.LB.LBFAST" Value="N"/>
<ItemData ItemOID="IT.LB.VISITNUM" Value="1"/>
<ItemData ItemOID="IT.LB.VISIT" Value="SCREEN"/>
<ItemData ItemOID="IT.LB.VISITDY" Value="-13"/>
<ItemData ItemOID="IT.LB.LBDTC" Value="2003-09-09T11:02"/>
<ItemData ItemOID="IT.LB.LBDY" Value="-21"/>
</ItemGroupData>
<ItemGroupData ItemGroupOID="IG.LB" data:ItemGroupDataSeq="53">
<ItemData ItemOID="IT.STUDYID" Value="CDISC01"/>
<ItemData ItemOID="IT.LB.DOMAIN" Value="LB"/>
<ItemData ItemOID="IT.USUBJID" Value="CDISC01.200001"/>
<ItemData ItemOID="IT.LB.LBSEQ" Value="14"/>
<ItemData ItemOID="IT.LB.LBREFID" Value="B332059"/>
<ItemData ItemOID="IT.LB.LBTESTCD" Value="LYM"/>
<ItemData ItemOID="IT.LB.LBTEST" Value="Lymphocytes"/>
<ItemData ItemOID="IT.LB.LBCAT" Value="HEMATOLOGY"/>
<ItemData ItemOID="IT.LB.LBORRES" Value="1.37"/>
<ItemData ItemOID="IT.LB.LBORRESU" Value="X10^9/L"/>
<ItemData ItemOID="IT.LB.LBORNRLO" Value="1.20"/>
<ItemData ItemOID="IT.LB.LBORNRHI" Value="4.00"/>
<ItemData ItemOID="IT.LB.LBSTRESC" Value="1.37"/>
<ItemData ItemOID="IT.LB.LBSTRESN" Value="1.37"/>
<ItemData ItemOID="IT.LB.LBSTRESU" Value="10**9/L"/>
<ItemData ItemOID="IT.LB.LBSTNRLO" Value="1.2"/>
<ItemData ItemOID="IT.LB.LBSTNRHI" Value="4"/>
<ItemData ItemOID="IT.LB.LBNRIND" Value="NORMAL"/>
<ItemData ItemOID="IT.LB.LBSPEC" Value="BLOOD"/>
<ItemData ItemOID="IT.LB.LBFAST" Value="N"/>
<ItemData ItemOID="IT.LB.VISITNUM" Value="10"/>
<ItemData ItemOID="IT.LB.VISIT" Value="WEEK 24"/>
<ItemData ItemOID="IT.LB.VISITDY" Value="169"/>
<ItemData ItemOID="IT.LB.LBDTC" Value="2004-02-02T08:58"/>
<ItemData ItemOID="IT.LB.LBDY" Value="126"/>
</ItemGroupData>
<ItemGroupData ItemGroupOID="IG.LB" data:ItemGroupDataSeq="54">
<ItemData ItemOID="IT.STUDYID" Value="CDISC01"/>
<ItemData ItemOID="IT.LB.DOMAIN" Value="LB"/>
<ItemData ItemOID="IT.USUBJID" Value="CDISC01.200001"/>
<ItemData ItemOID="IT.LB.LBSEQ" Value="15"/>
<ItemData ItemOID="IT.LB.LBREFID" Value="B279926"/>
<ItemData ItemOID="IT.LB.LBTESTCD" Value="OCCBLD"/>
<ItemData ItemOID="IT.LB.LBTEST" Value="Occult Blood"/>
<ItemData ItemOID="IT.LB.LBCAT" Value="URINALYSIS"/>
<ItemData ItemOID="IT.LB.LBORRES" Value="NEGATIVE"/>
<ItemData ItemOID="IT.LB.LBSTRESC" Value="NEGATIVE"/>
<ItemData ItemOID="IT.LB.LBSTNRC" Value="NEGATIVE - NEGATIVE"/>
<ItemData ItemOID="IT.LB.LBNRIND" Value="NORMAL"/>
<ItemData ItemOID="IT.LB.LBSPEC" Value="URINE"/>
<ItemData ItemOID="IT.LB.LBBLFL" Value="Y"/>
<ItemData ItemOID="IT.LB.LBFAST" Value="N"/>
<ItemData ItemOID="IT.LB.VISITNUM" Value="1"/>
<ItemData ItemOID="IT.LB.VISIT" Value="SCREEN"/>
<ItemData ItemOID="IT.LB.VISITDY" Value="-13"/>
<ItemData ItemOID="IT.LB.LBDTC" Value="2003-09-09T11:02"/>
<ItemData ItemOID="IT.LB.LBDY" Value="-21"/>
</ItemGroupData>
<ItemGroupData ItemGroupOID="IG.LB" data:ItemGroupDataSeq="55">
<ItemData ItemOID="IT.STUDYID" Value="CDISC01"/>
<ItemData ItemOID="IT.LB.DOMAIN" Value="LB"/>
<ItemData ItemOID="IT.USUBJID" Value="CDISC01.200001"/>
<ItemData ItemOID="IT.LB.LBSEQ" Value="16"/>
<ItemData ItemOID="IT.LB.LBREFID" Value="B332059"/>
<ItemData ItemOID="IT.LB.LBTESTCD" Value="OCCBLD"/>
<ItemData ItemOID="IT.LB.LBTEST" Value="Occult Blood"/>
<ItemData ItemOID="IT.LB.LBCAT" Value="URINALYSIS"/>
<ItemData ItemOID="IT.LB.LBORRES" Value="NEGATIVE"/>
<ItemData ItemOID="IT.LB.LBSTRESC" Value="NEGATIVE"/>
<ItemData ItemOID="IT.LB.LBSTNRC" Value="NEGATIVE - NEGATIVE"/>
<ItemData ItemOID="IT.LB.LBNRIND" Value="NORMAL"/>
<ItemData ItemOID="IT.LB.LBSPEC" Value="URINE"/>
<ItemData ItemOID="IT.LB.LBFAST" Value="N"/>
<ItemData ItemOID="IT.LB.VISITNUM" Value="10"/>
<ItemData ItemOID="IT.LB.VISIT" Value="WEEK 24"/>
<ItemData ItemOID="IT.LB.VISITDY" Value="169"/>
<ItemData ItemOID="IT.LB.LBDTC" Value="2004-02-02T08:58"/>
<ItemData ItemOID="IT.LB.LBDY" Value="126"/>
</ItemGroupData>
<ItemGroupData ItemGroupOID="IG.LB" data:ItemGroupDataSeq="56">
<ItemData ItemOID="IT.STUDYID" Value="CDISC01"/>
<ItemData ItemOID="IT.LB.DOMAIN" Value="LB"/>
<ItemData ItemOID="IT.USUBJID" Value="CDISC01.200001"/>
<ItemData ItemOID="IT.LB.LBSEQ" Value="17"/>
<ItemData ItemOID="IT.LB.LBREFID" Value="B279926"/>
<ItemData ItemOID="IT.LB.LBTESTCD" Value="PH"/>
<ItemData ItemOID="IT.LB.LBTEST" Value="pH"/>
<ItemData ItemOID="IT.LB.LBCAT" Value="URINALYSIS"/>
<ItemData ItemOID="IT.LB.LBORRES" Value="7.0"/>
<ItemData ItemOID="IT.LB.LBORNRLO" Value="5.0"/>
<ItemData ItemOID="IT.LB.LBORNRHI" Value="8.0"/>
<ItemData ItemOID="IT.LB.LBSTRESC" Value="7"/>
<ItemData ItemOID="IT.LB.LBSTRESN" Value="7"/>
<ItemData ItemOID="IT.LB.LBSTNRLO" Value="5"/>
<ItemData ItemOID="IT.LB.LBSTNRHI" Value="8"/>
<ItemData ItemOID="IT.LB.LBNRIND" Value="NORMAL"/>
<ItemData ItemOID="IT.LB.LBSPEC" Value="URINE"/>
<ItemData ItemOID="IT.LB.LBBLFL" Value="Y"/>
<ItemData ItemOID="IT.LB.LBFAST" Value="N"/>
<ItemData ItemOID="IT.LB.VISITNUM" Value="1"/>
<ItemData ItemOID="IT.LB.VISIT" Value="SCREEN"/>
<ItemData ItemOID="IT.LB.VISITDY" Value="-13"/>
<ItemData ItemOID="IT.LB.LBDTC" Value="2003-09-09T11:02"/>
<ItemData ItemOID="IT.LB.LBDY" Value="-21"/>
</ItemGroupData>
<ItemGroupData ItemGroupOID="IG.LB" data:ItemGroupDataSeq="57">
<ItemData ItemOID="IT.STUDYID" Value="CDISC01"/>
<ItemData ItemOID="IT.LB.DOMAIN" Value="LB"/>
<ItemData ItemOID="IT.USUBJID" Value="CDISC01.200001"/>
<ItemData ItemOID="IT.LB.LBSEQ" Value="18"/>
<ItemData ItemOID="IT.LB.LBREFID" Value="B332059"/>
<ItemData ItemOID="IT.LB.LBTESTCD" Value="PH"/>
<ItemData ItemOID="IT.LB.LBTEST" Value="pH"/>
<ItemData ItemOID="IT.LB.LBCAT" Value="URINALYSIS"/>
<ItemData ItemOID="IT.LB.LBORRES" Value="7.0"/>
<ItemData ItemOID="IT.LB.LBORNRLO" Value="5.0"/>
<ItemData ItemOID="IT.LB.LBORNRHI" Value="8.0"/>
<ItemData ItemOID="IT.LB.LBSTRESC" Value="7"/>
<ItemData ItemOID="IT.LB.LBSTRESN" Value="7"/>
<ItemData ItemOID="IT.LB.LBSTNRLO" Value="5"/>
<ItemData ItemOID="IT.LB.LBSTNRHI" Value="8"/>
<ItemData ItemOID="IT.LB.LBNRIND" Value="NORMAL"/>
<ItemData ItemOID="IT.LB.LBSPEC" Value="URINE"/>
<ItemData ItemOID="IT.LB.LBFAST" Value="N"/>
<ItemData ItemOID="IT.LB.VISITNUM" Value="10"/>
<ItemData ItemOID="IT.LB.VISIT" Value="WEEK 24"/>
<ItemData ItemOID="IT.LB.VISITDY" Value="169"/>
<ItemData ItemOID="IT.LB.LBDTC" Value="2004-02-02T08:58"/>
<ItemData ItemOID="IT.LB.LBDY" Value="126"/>
</ItemGroupData>
<ItemGroupData ItemGroupOID="IG.LB" data:ItemGroupDataSeq="58">
<ItemData ItemOID="IT.STUDYID" Value="CDISC01"/>
<ItemData ItemOID="IT.LB.DOMAIN" Value="LB"/>
<ItemData ItemOID="IT.USUBJID" Value="CDISC01.200001"/>
<ItemData ItemOID="IT.LB.LBSEQ" Value="19"/>
<ItemData ItemOID="IT.LB.LBREFID" Value="B279926"/>
<ItemData ItemOID="IT.LB.LBTESTCD" Value="GLUC"/>
<ItemData ItemOID="IT.LB.LBTEST" Value="Glucose"/>
<ItemData ItemOID="IT.LB.LBCAT" Value="URINALYSIS"/>
<ItemData ItemOID="IT.LB.LBORRES" Value="NEGATIVE"/>
<ItemData ItemOID="IT.LB.LBSTRESC" Value="NEGATIVE"/>
<ItemData ItemOID="IT.LB.LBSTNRC" Value="NEGATIVE TO TRACE"/>
<ItemData ItemOID="IT.LB.LBNRIND" Value="NORMAL"/>
<ItemData ItemOID="IT.LB.LBSPEC" Value="URINE"/>
<ItemData ItemOID="IT.LB.LBMETHOD" Value="DIPSTICK"/>
<ItemData ItemOID="IT.LB.LBBLFL" Value="Y"/>
<ItemData ItemOID="IT.LB.LBFAST" Value="N"/>
<ItemData ItemOID="IT.LB.VISITNUM" Value="1"/>
<ItemData ItemOID="IT.LB.VISIT" Value="SCREEN"/>
<ItemData ItemOID="IT.LB.VISITDY" Value="-13"/>
<ItemData ItemOID="IT.LB.LBDTC" Value="2003-09-09T11:02"/>
<ItemData ItemOID="IT.LB.LBDY" Value="-21"/>
</ItemGroupData>
<ItemGroupData ItemGroupOID="IG.LB" data:ItemGroupDataSeq="59">
<ItemData ItemOID="IT.STUDYID" Value="CDISC01"/>
<ItemData ItemOID="IT.LB.DOMAIN" Value="LB"/>
<ItemData ItemOID="IT.USUBJID" Value="CDISC01.200001"/>
<ItemData ItemOID="IT.LB.LBSEQ" Value="20"/>
<ItemData ItemOID="IT.LB.LBREFID" Value="B332059"/>
<ItemData ItemOID="IT.LB.LBTESTCD" Value="GLUC"/>
<ItemData ItemOID="IT.LB.LBTEST" Value="Glucose"/>
<ItemData ItemOID="IT.LB.LBCAT" Value="URINALYSIS"/>
<ItemData ItemOID="IT.LB.LBORRES" Value="NEGATIVE"/>
<ItemData ItemOID="IT.LB.LBSTRESC" Value="NEGATIVE"/>
<ItemData ItemOID="IT.LB.LBSTNRC" Value="NEGATIVE TO TRACE"/>
<ItemData ItemOID="IT.LB.LBNRIND" Value="NORMAL"/>
<ItemData ItemOID="IT.LB.LBSPEC" Value="URINE"/>
<ItemData ItemOID="IT.LB.LBMETHOD" Value="DIPSTICK"/>
<ItemData ItemOID="IT.LB.LBFAST" Value="N"/>
<ItemData ItemOID="IT.LB.VISITNUM" Value="10"/>
<ItemData ItemOID="IT.LB.VISIT" Value="WEEK 24"/>
<ItemData ItemOID="IT.LB.VISITDY" Value="169"/>
<ItemData ItemOID="IT.LB.LBDTC" Value="2004-02-02T08:58"/>
<ItemData ItemOID="IT.LB.LBDY" Value="126"/>
</ItemGroupData>
<ItemGroupData ItemGroupOID="IG.LB" data:ItemGroupDataSeq="60">
<ItemData ItemOID="IT.STUDYID" Value="CDISC01"/>
<ItemData ItemOID="IT.LB.DOMAIN" Value="LB"/>
<ItemData ItemOID="IT.USUBJID" Value="CDISC01.200001"/>
<ItemData ItemOID="IT.LB.LBSEQ" Value="21"/>
<ItemData ItemOID="IT.LB.LBREFID" Value="B279926"/>
<ItemData ItemOID="IT.LB.LBTESTCD" Value="GLUC"/>
<ItemData ItemOID="IT.LB.LBTEST" Value="Glucose"/>
<ItemData ItemOID="IT.LB.LBCAT" Value="URINALYSIS"/>
<ItemData ItemOID="IT.LB.LBORRES" Value="0"/>
<ItemData ItemOID="IT.LB.LBORRESU" Value="mg/dL"/>
<ItemData ItemOID="IT.LB.LBORNRLO" Value="0"/>
<ItemData ItemOID="IT.LB.LBORNRHI" Value="30"/>
<ItemData ItemOID="IT.LB.LBSTRESC" Value="0"/>
<ItemData ItemOID="IT.LB.LBSTRESN" Value="0"/>
<ItemData ItemOID="IT.LB.LBSTRESU" Value="mmol/L"/>
<ItemData ItemOID="IT.LB.LBSTNRLO" Value="0"/>
<ItemData ItemOID="IT.LB.LBSTNRHI" Value="1.7"/>
<ItemData ItemOID="IT.LB.LBNRIND" Value="NORMAL"/>
<ItemData ItemOID="IT.LB.LBSPEC" Value="URINE"/>
<ItemData ItemOID="IT.LB.LBMETHOD" Value="QUANT"/>
<ItemData ItemOID="IT.LB.LBBLFL" Value="Y"/>
<ItemData ItemOID="IT.LB.LBFAST" Value="N"/>
<ItemData ItemOID="IT.LB.VISITNUM" Value="1"/>
<ItemData ItemOID="IT.LB.VISIT" Value="SCREEN"/>
<ItemData ItemOID="IT.LB.VISITDY" Value="-13"/>
<ItemData ItemOID="IT.LB.LBDTC" Value="2003-09-09T11:02"/>
<ItemData ItemOID="IT.LB.LBDY" Value="-21"/>
</ItemGroupData>
<ItemGroupData ItemGroupOID="IG.LB" data:ItemGroupDataSeq="61">
<ItemData ItemOID="IT.STUDYID" Value="CDISC01"/>
<ItemData ItemOID="IT.LB.DOMAIN" Value="LB"/>
<ItemData ItemOID="IT.USUBJID" Value="CDISC01.200001"/>
<ItemData ItemOID="IT.LB.LBSEQ" Value="22"/>
<ItemData ItemOID="IT.LB.LBREFID" Value="B332059"/>
<ItemData ItemOID="IT.LB.LBTESTCD" Value="GLUC"/>
<ItemData ItemOID="IT.LB.LBTEST" Value="Glucose"/>
<ItemData ItemOID="IT.LB.LBCAT" Value="URINALYSIS"/>
<ItemData ItemOID="IT.LB.LBORRES" Value="4"/>
<ItemData ItemOID="IT.LB.LBORRESU" Value="mg/dL"/>
<ItemData ItemOID="IT.LB.LBORNRLO" Value="0"/>
<ItemData ItemOID="IT.LB.LBORNRHI" Value="30"/>
<ItemData ItemOID="IT.LB.LBSTRESC" Value="0.2"/>
<ItemData ItemOID="IT.LB.LBSTRESN" Value="0.2"/>
<ItemData ItemOID="IT.LB.LBSTRESU" Value="mmol/L"/>
<ItemData ItemOID="IT.LB.LBSTNRLO" Value="0"/>
<ItemData ItemOID="IT.LB.LBSTNRHI" Value="1.7"/>
<ItemData ItemOID="IT.LB.LBNRIND" Value="NORMAL"/>
<ItemData ItemOID="IT.LB.LBSPEC" Value="URINE"/>
<ItemData ItemOID="IT.LB.LBMETHOD" Value="QUANT"/>
<ItemData ItemOID="IT.LB.LBFAST" Value="N"/>
<ItemData ItemOID="IT.LB.VISITNUM" Value="10"/>
<ItemData ItemOID="IT.LB.VISIT" Value="WEEK 24"/>
<ItemData ItemOID="IT.LB.VISITDY" Value="169"/>
<ItemData ItemOID="IT.LB.LBDTC" Value="2004-02-02T08:58"/>
<ItemData ItemOID="IT.LB.LBDY" Value="126"/>
</ItemGroupData>
<ItemGroupData ItemGroupOID="IG.LB" data:ItemGroupDataSeq="62">
<ItemData ItemOID="IT.STUDYID" Value="CDISC01"/>
<ItemData ItemOID="IT.LB.DOMAIN" Value="LB"/>
<ItemData ItemOID="IT.USUBJID" Value="CDISC01.200002"/>
<ItemData ItemOID="IT.LB.LBSEQ" Value="1"/>
<ItemData ItemOID="IT.LB.LBREFID" Value="B283499"/>
<ItemData ItemOID="IT.LB.LBTESTCD" Value="BILI"/>
<ItemData ItemOID="IT.LB.LBTEST" Value="Bilirubin"/>
<ItemData ItemOID="IT.LB.LBCAT" Value="CHEMISTRY"/>
<ItemData ItemOID="IT.LB.LBORRES" Value="0.3"/>
<ItemData ItemOID="IT.LB.LBORRESU" Value="mg/dL"/>
<ItemData ItemOID="IT.LB.LBORNRLO" Value=".0"/>
<ItemData ItemOID="IT.LB.LBORNRHI" Value="1.1"/>
<ItemData ItemOID="IT.LB.LBSTRESC" Value="5.1"/>
<ItemData ItemOID="IT.LB.LBSTRESN" Value="5.1"/>
<ItemData ItemOID="IT.LB.LBSTRESU" Value="umol/L"/>
<ItemData ItemOID="IT.LB.LBSTNRLO" Value="0"/>
<ItemData ItemOID="IT.LB.LBSTNRHI" Value="18.8"/>
<ItemData ItemOID="IT.LB.LBNRIND" Value="NORMAL"/>
<ItemData ItemOID="IT.LB.LBSPEC" Value="BLOOD"/>
<ItemData ItemOID="IT.LB.LBBLFL" Value="Y"/>
<ItemData ItemOID="IT.LB.LBFAST" Value="N"/>
<ItemData ItemOID="IT.LB.VISITNUM" Value="1"/>
<ItemData ItemOID="IT.LB.VISIT" Value="SCREEN"/>
<ItemData ItemOID="IT.LB.VISITDY" Value="-13"/>
<ItemData ItemOID="IT.LB.LBDTC" Value="2003-09-19T14:45"/>
<ItemData ItemOID="IT.LB.LBDY" Value="-21"/>
</ItemGroupData>
<ItemGroupData ItemGroupOID="IG.LB" data:ItemGroupDataSeq="63">
<ItemData ItemOID="IT.STUDYID" Value="CDISC01"/>
<ItemData ItemOID="IT.LB.DOMAIN" Value="LB"/>
<ItemData ItemOID="IT.USUBJID" Value="CDISC01.200002"/>
<ItemData ItemOID="IT.LB.LBSEQ" Value="2"/>
<ItemData ItemOID="IT.LB.LBREFID" Value="B357223"/>
<ItemData ItemOID="IT.LB.LBTESTCD" Value="BILI"/>
<ItemData ItemOID="IT.LB.LBTEST" Value="Bilirubin"/>
<ItemData ItemOID="IT.LB.LBCAT" Value="CHEMISTRY"/>
<ItemData ItemOID="IT.LB.LBORRES" Value="0.4"/>
<ItemData ItemOID="IT.LB.LBORRESU" Value="mg/dL"/>
<ItemData ItemOID="IT.LB.LBORNRLO" Value=".0"/>
<ItemData ItemOID="IT.LB.LBORNRHI" Value="1.1"/>
<ItemData ItemOID="IT.LB.LBSTRESC" Value="6.8"/>
<ItemData ItemOID="IT.LB.LBSTRESN" Value="6.8"/>
<ItemData ItemOID="IT.LB.LBSTRESU" Value="umol/L"/>
<ItemData ItemOID="IT.LB.LBSTNRLO" Value="0"/>
<ItemData ItemOID="IT.LB.LBSTNRHI" Value="18.8"/>
<ItemData ItemOID="IT.LB.LBNRIND" Value="NORMAL"/>
<ItemData ItemOID="IT.LB.LBSPEC" Value="BLOOD"/>
<ItemData ItemOID="IT.LB.LBFAST" Value="N"/>
<ItemData ItemOID="IT.LB.VISITNUM" Value="10"/>
<ItemData ItemOID="IT.LB.VISIT" Value="WEEK 24"/>
<ItemData ItemOID="IT.LB.VISITDY" Value="169"/>
<ItemData ItemOID="IT.LB.LBDTC" Value="2004-03-29T09:40"/>
<ItemData ItemOID="IT.LB.LBDY" Value="172"/>
</ItemGroupData>
<ItemGroupData ItemGroupOID="IG.LB" data:ItemGroupDataSeq="64">
<ItemData ItemOID="IT.STUDYID" Value="CDISC01"/>
<ItemData ItemOID="IT.LB.DOMAIN" Value="LB"/>
<ItemData ItemOID="IT.USUBJID" Value="CDISC01.200002"/>
<ItemData ItemOID="IT.LB.LBSEQ" Value="3"/>
<ItemData ItemOID="IT.LB.LBREFID" Value="B283499"/>
<ItemData ItemOID="IT.LB.LBTESTCD" Value="BUN"/>
<ItemData ItemOID="IT.LB.LBTEST" Value="Blood Urea Nitrogen"/>
<ItemData ItemOID="IT.LB.LBCAT" Value="CHEMISTRY"/>
<ItemData ItemOID="IT.LB.LBORRES" Value="13"/>
<ItemData ItemOID="IT.LB.LBORRESU" Value="mg/dL"/>
<ItemData ItemOID="IT.LB.LBORNRLO" Value="9"/>
<ItemData ItemOID="IT.LB.LBORNRHI" Value="24"/>
<ItemData ItemOID="IT.LB.LBSTRESC" Value="4.64"/>
<ItemData ItemOID="IT.LB.LBSTRESN" Value="4.64"/>
<ItemData ItemOID="IT.LB.LBSTRESU" Value="mmol/L"/>
<ItemData ItemOID="IT.LB.LBSTNRLO" Value="3.21"/>
<ItemData ItemOID="IT.LB.LBSTNRHI" Value="8.57"/>
<ItemData ItemOID="IT.LB.LBNRIND" Value="NORMAL"/>
<ItemData ItemOID="IT.LB.LBSPEC" Value="BLOOD"/>
<ItemData ItemOID="IT.LB.LBBLFL" Value="Y"/>
<ItemData ItemOID="IT.LB.LBFAST" Value="N"/>
<ItemData ItemOID="IT.LB.VISITNUM" Value="1"/>
<ItemData ItemOID="IT.LB.VISIT" Value="SCREEN"/>
<ItemData ItemOID="IT.LB.VISITDY" Value="-13"/>
<ItemData ItemOID="IT.LB.LBDTC" Value="2003-09-19T14:45"/>
<ItemData ItemOID="IT.LB.LBDY" Value="-21"/>
</ItemGroupData>
<ItemGroupData ItemGroupOID="IG.LB" data:ItemGroupDataSeq="65">
<ItemData ItemOID="IT.STUDYID" Value="CDISC01"/>
<ItemData ItemOID="IT.LB.DOMAIN" Value="LB"/>
<ItemData ItemOID="IT.USUBJID" Value="CDISC01.200002"/>
<ItemData ItemOID="IT.LB.LBSEQ" Value="4"/>
<ItemData ItemOID="IT.LB.LBREFID" Value="B357223"/>
<ItemData ItemOID="IT.LB.LBTESTCD" Value="BUN"/>
<ItemData ItemOID="IT.LB.LBTEST" Value="Blood Urea Nitrogen"/>
<ItemData ItemOID="IT.LB.LBCAT" Value="CHEMISTRY"/>
<ItemData ItemOID="IT.LB.LBORRES" Value="15"/>
<ItemData ItemOID="IT.LB.LBORRESU" Value="mg/dL"/>
<ItemData ItemOID="IT.LB.LBORNRLO" Value="9"/>
<ItemData ItemOID="IT.LB.LBORNRHI" Value="24"/>
<ItemData ItemOID="IT.LB.LBSTRESC" Value="5.36"/>
<ItemData ItemOID="IT.LB.LBSTRESN" Value="5.36"/>
<ItemData ItemOID="IT.LB.LBSTRESU" Value="mmol/L"/>
<ItemData ItemOID="IT.LB.LBSTNRLO" Value="3.21"/>
<ItemData ItemOID="IT.LB.LBSTNRHI" Value="8.57"/>
<ItemData ItemOID="IT.LB.LBNRIND" Value="NORMAL"/>
<ItemData ItemOID="IT.LB.LBSPEC" Value="BLOOD"/>
<ItemData ItemOID="IT.LB.LBFAST" Value="N"/>
<ItemData ItemOID="IT.LB.VISITNUM" Value="10"/>
<ItemData ItemOID="IT.LB.VISIT" Value="WEEK 24"/>
<ItemData ItemOID="IT.LB.VISITDY" Value="169"/>
<ItemData ItemOID="IT.LB.LBDTC" Value="2004-03-29T09:40"/>
<ItemData ItemOID="IT.LB.LBDY" Value="172"/>
</ItemGroupData>
<ItemGroupData ItemGroupOID="IG.LB" data:ItemGroupDataSeq="66">
<ItemData ItemOID="IT.STUDYID" Value="CDISC01"/>
<ItemData ItemOID="IT.LB.DOMAIN" Value="LB"/>
<ItemData ItemOID="IT.USUBJID" Value="CDISC01.200002"/>
<ItemData ItemOID="IT.LB.LBSEQ" Value="5"/>
<ItemData ItemOID="IT.LB.LBREFID" Value="B283499"/>
<ItemData ItemOID="IT.LB.LBTESTCD" Value="GLUC"/>
<ItemData ItemOID="IT.LB.LBTEST" Value="Glucose"/>
<ItemData ItemOID="IT.LB.LBCAT" Value="CHEMISTRY"/>
<ItemData ItemOID="IT.LB.LBORRES" Value="74"/>
<ItemData ItemOID="IT.LB.LBORRESU" Value="mg/dL"/>
<ItemData ItemOID="IT.LB.LBORNRLO" Value="68"/>
<ItemData ItemOID="IT.LB.LBORNRHI" Value="110"/>
<ItemData ItemOID="IT.LB.LBSTRESC" Value="4.1"/>
<ItemData ItemOID="IT.LB.LBSTRESN" Value="4.1"/>
<ItemData ItemOID="IT.LB.LBSTRESU" Value="mmol/L"/>
<ItemData ItemOID="IT.LB.LBSTNRLO" Value="3.8"/>
<ItemData ItemOID="IT.LB.LBSTNRHI" Value="6.1"/>
<ItemData ItemOID="IT.LB.LBNRIND" Value="NORMAL"/>
<ItemData ItemOID="IT.LB.LBSPEC" Value="BLOOD"/>
<ItemData ItemOID="IT.LB.LBBLFL" Value="Y"/>
<ItemData ItemOID="IT.LB.LBFAST" Value="N"/>
<ItemData ItemOID="IT.LB.VISITNUM" Value="1"/>
<ItemData ItemOID="IT.LB.VISIT" Value="SCREEN"/>
<ItemData ItemOID="IT.LB.VISITDY" Value="-13"/>
<ItemData ItemOID="IT.LB.LBDTC" Value="2003-09-19T14:45"/>
<ItemData ItemOID="IT.LB.LBDY" Value="-21"/>
</ItemGroupData>
<ItemGroupData ItemGroupOID="IG.LB" data:ItemGroupDataSeq="67">
<ItemData ItemOID="IT.STUDYID" Value="CDISC01"/>
<ItemData ItemOID="IT.LB.DOMAIN" Value="LB"/>
<ItemData ItemOID="IT.USUBJID" Value="CDISC01.200002"/>
<ItemData ItemOID="IT.LB.LBSEQ" Value="6"/>
<ItemData ItemOID="IT.LB.LBREFID" Value="B357223"/>
<ItemData ItemOID="IT.LB.LBTESTCD" Value="GLUC"/>
<ItemData ItemOID="IT.LB.LBTEST" Value="Glucose"/>
<ItemData ItemOID="IT.LB.LBCAT" Value="CHEMISTRY"/>
<ItemData ItemOID="IT.LB.LBORRES" Value="51"/>
<ItemData ItemOID="IT.LB.LBORRESU" Value="mg/dL"/>
<ItemData ItemOID="IT.LB.LBORNRLO" Value="68"/>
<ItemData ItemOID="IT.LB.LBORNRHI" Value="110"/>
<ItemData ItemOID="IT.LB.LBSTRESC" Value="2.8"/>
<ItemData ItemOID="IT.LB.LBSTRESN" Value="2.8"/>
<ItemData ItemOID="IT.LB.LBSTRESU" Value="mmol/L"/>
<ItemData ItemOID="IT.LB.LBSTNRLO" Value="3.8"/>
<ItemData ItemOID="IT.LB.LBSTNRHI" Value="6.1"/>
<ItemData ItemOID="IT.LB.LBNRIND" Value="LOW"/>
<ItemData ItemOID="IT.LB.LBSPEC" Value="BLOOD"/>
<ItemData ItemOID="IT.LB.LBFAST" Value="N"/>
<ItemData ItemOID="IT.LB.VISITNUM" Value="10"/>
<ItemData ItemOID="IT.LB.VISIT" Value="WEEK 24"/>
<ItemData ItemOID="IT.LB.VISITDY" Value="169"/>
<ItemData ItemOID="IT.LB.LBDTC" Value="2004-03-29T09:40"/>
<ItemData ItemOID="IT.LB.LBDY" Value="172"/>
</ItemGroupData>
<ItemGroupData ItemGroupOID="IG.LB" data:ItemGroupDataSeq="68">
<ItemData ItemOID="IT.STUDYID" Value="CDISC01"/>
<ItemData ItemOID="IT.LB.DOMAIN" Value="LB"/>
<ItemData ItemOID="IT.USUBJID" Value="CDISC01.200002"/>
<ItemData ItemOID="IT.LB.LBSEQ" Value="7"/>
<ItemData ItemOID="IT.LB.LBREFID" Value="B283499"/>
<ItemData ItemOID="IT.LB.LBTESTCD" Value="VITB12"/>
<ItemData ItemOID="IT.LB.LBTEST" Value="Vitamin B12"/>
<ItemData ItemOID="IT.LB.LBCAT" Value="CHEMISTRY"/>
<ItemData ItemOID="IT.LB.LBORRES" Value="1069"/>
<ItemData ItemOID="IT.LB.LBORRESU" Value="pg/mL"/>
<ItemData ItemOID="IT.LB.LBORNRLO" Value="220"/>
<ItemData ItemOID="IT.LB.LBORNRHI" Value="960"/>
<ItemData ItemOID="IT.LB.LBSTRESC" Value="789"/>
<ItemData ItemOID="IT.LB.LBSTRESN" Value="789"/>
<ItemData ItemOID="IT.LB.LBSTRESU" Value="pmol/L"/>
<ItemData ItemOID="IT.LB.LBSTNRLO" Value="162"/>
<ItemData ItemOID="IT.LB.LBSTNRHI" Value="708"/>
<ItemData ItemOID="IT.LB.LBNRIND" Value="HIGH"/>
<ItemData ItemOID="IT.LB.LBSPEC" Value="SERUM"/>
<ItemData ItemOID="IT.LB.LBBLFL" Value="Y"/>
<ItemData ItemOID="IT.LB.LBFAST" Value="N"/>
<ItemData ItemOID="IT.LB.VISITNUM" Value="1"/>
<ItemData ItemOID="IT.LB.VISIT" Value="SCREEN"/>
<ItemData ItemOID="IT.LB.VISITDY" Value="-13"/>
<ItemData ItemOID="IT.LB.LBDTC" Value="2003-09-19T14:45"/>
<ItemData ItemOID="IT.LB.LBDY" Value="-21"/>
</ItemGroupData>
<ItemGroupData ItemGroupOID="IG.LB" data:ItemGroupDataSeq="69">
<ItemData ItemOID="IT.STUDYID" Value="CDISC01"/>
<ItemData ItemOID="IT.LB.DOMAIN" Value="LB"/>
<ItemData ItemOID="IT.USUBJID" Value="CDISC01.200002"/>
<ItemData ItemOID="IT.LB.LBSEQ" Value="8"/>
<ItemData ItemOID="IT.LB.LBREFID" Value="B283499"/>
<ItemData ItemOID="IT.LB.LBTESTCD" Value="VITB9"/>
<ItemData ItemOID="IT.LB.LBTEST" Value="Vitamin B9"/>
<ItemData ItemOID="IT.LB.LBCAT" Value="CHEMISTRY"/>
<ItemData ItemOID="IT.LB.LBORRES" Value="29.9"/>
<ItemData ItemOID="IT.LB.LBORRESU" Value="ng/dL"/>
<ItemData ItemOID="IT.LB.LBORNRLO" Value="3.0"/>
<ItemData ItemOID="IT.LB.LBORNRHI" Value="17.0"/>
<ItemData ItemOID="IT.LB.LBSTRESC" Value="67.8"/>
<ItemData ItemOID="IT.LB.LBSTRESN" Value="67.8"/>
<ItemData ItemOID="IT.LB.LBSTRESU" Value="nmol/L"/>
<ItemData ItemOID="IT.LB.LBSTNRLO" Value="6.8"/>
<ItemData ItemOID="IT.LB.LBSTNRHI" Value="38.5"/>
<ItemData ItemOID="IT.LB.LBNRIND" Value="HIGH"/>
<ItemData ItemOID="IT.LB.LBSPEC" Value="BLOOD"/>
<ItemData ItemOID="IT.LB.LBBLFL" Value="Y"/>
<ItemData ItemOID="IT.LB.LBFAST" Value="N"/>
<ItemData ItemOID="IT.LB.VISITNUM" Value="1"/>
<ItemData ItemOID="IT.LB.VISIT" Value="SCREEN"/>
<ItemData ItemOID="IT.LB.VISITDY" Value="-13"/>
<ItemData ItemOID="IT.LB.LBDTC" Value="2003-09-19T14:45"/>
<ItemData ItemOID="IT.LB.LBDY" Value="-21"/>
</ItemGroupData>
<ItemGroupData ItemGroupOID="IG.LB" data:ItemGroupDataSeq="70">
<ItemData ItemOID="IT.STUDYID" Value="CDISC01"/>
<ItemData ItemOID="IT.LB.DOMAIN" Value="LB"/>
<ItemData ItemOID="IT.USUBJID" Value="CDISC01.200002"/>
<ItemData ItemOID="IT.LB.LBSEQ" Value="9"/>
<ItemData ItemOID="IT.LB.LBREFID" Value="B283499"/>
<ItemData ItemOID="IT.LB.LBTESTCD" Value="HCT"/>
<ItemData ItemOID="IT.LB.LBTEST" Value="Hematocrit"/>
<ItemData ItemOID="IT.LB.LBCAT" Value="HEMATOLOGY"/>
<ItemData ItemOID="IT.LB.LBORRES" Value="44.1"/>
<ItemData ItemOID="IT.LB.LBORRESU" Value="%"/>
<ItemData ItemOID="IT.LB.LBORNRLO" Value="35.0"/>
<ItemData ItemOID="IT.LB.LBORNRHI" Value="47.0"/>
<ItemData ItemOID="IT.LB.LBSTRESC" Value="0.44"/>
<ItemData ItemOID="IT.LB.LBSTRESN" Value="0.44"/>
<ItemData ItemOID="IT.LB.LBSTNRLO" Value="0.35"/>
<ItemData ItemOID="IT.LB.LBSTNRHI" Value="0.47"/>
<ItemData ItemOID="IT.LB.LBNRIND" Value="NORMAL"/>
<ItemData ItemOID="IT.LB.LBSPEC" Value="BLOOD"/>
<ItemData ItemOID="IT.LB.LBBLFL" Value="Y"/>
<ItemData ItemOID="IT.LB.LBFAST" Value="N"/>
<ItemData ItemOID="IT.LB.VISITNUM" Value="1"/>
<ItemData ItemOID="IT.LB.VISIT" Value="SCREEN"/>
<ItemData ItemOID="IT.LB.VISITDY" Value="-13"/>
<ItemData ItemOID="IT.LB.LBDTC" Value="2003-09-19T14:45"/>
<ItemData ItemOID="IT.LB.LBDY" Value="-21"/>
</ItemGroupData>
<ItemGroupData ItemGroupOID="IG.LB" data:ItemGroupDataSeq="71">
<ItemData ItemOID="IT.STUDYID" Value="CDISC01"/>
<ItemData ItemOID="IT.LB.DOMAIN" Value="LB"/>
<ItemData ItemOID="IT.USUBJID" Value="CDISC01.200002"/>
<ItemData ItemOID="IT.LB.LBSEQ" Value="10"/>
<ItemData ItemOID="IT.LB.LBREFID" Value="B357223"/>
<ItemData ItemOID="IT.LB.LBTESTCD" Value="HCT"/>
<ItemData ItemOID="IT.LB.LBTEST" Value="Hematocrit"/>
<ItemData ItemOID="IT.LB.LBCAT" Value="HEMATOLOGY"/>
<ItemData ItemOID="IT.LB.LBORRES" Value="40.5"/>
<ItemData ItemOID="IT.LB.LBORRESU" Value="%"/>
<ItemData ItemOID="IT.LB.LBORNRLO" Value="35.0"/>
<ItemData ItemOID="IT.LB.LBORNRHI" Value="47.0"/>
<ItemData ItemOID="IT.LB.LBSTRESC" Value="0.41"/>
<ItemData ItemOID="IT.LB.LBSTRESN" Value="0.41"/>
<ItemData ItemOID="IT.LB.LBSTNRLO" Value="0.35"/>
<ItemData ItemOID="IT.LB.LBSTNRHI" Value="0.47"/>
<ItemData ItemOID="IT.LB.LBNRIND" Value="NORMAL"/>
<ItemData ItemOID="IT.LB.LBSPEC" Value="BLOOD"/>
<ItemData ItemOID="IT.LB.LBFAST" Value="N"/>
<ItemData ItemOID="IT.LB.VISITNUM" Value="10"/>
<ItemData ItemOID="IT.LB.VISIT" Value="WEEK 24"/>
<ItemData ItemOID="IT.LB.VISITDY" Value="169"/>
<ItemData ItemOID="IT.LB.LBDTC" Value="2004-03-29T09:40"/>
<ItemData ItemOID="IT.LB.LBDY" Value="172"/>
</ItemGroupData>
<ItemGroupData ItemGroupOID="IG.LB" data:ItemGroupDataSeq="72">
<ItemData ItemOID="IT.STUDYID" Value="CDISC01"/>
<ItemData ItemOID="IT.LB.DOMAIN" Value="LB"/>
<ItemData ItemOID="IT.USUBJID" Value="CDISC01.200002"/>
<ItemData ItemOID="IT.LB.LBSEQ" Value="11"/>
<ItemData ItemOID="IT.LB.LBREFID" Value="B283499"/>
<ItemData ItemOID="IT.LB.LBTESTCD" Value="HGB"/>
<ItemData ItemOID="IT.LB.LBTEST" Value="Hemoglobin"/>
<ItemData ItemOID="IT.LB.LBCAT" Value="HEMATOLOGY"/>
<ItemData ItemOID="IT.LB.LBORRES" Value="14.2"/>
<ItemData ItemOID="IT.LB.LBORRESU" Value="g/dL"/>
<ItemData ItemOID="IT.LB.LBORNRLO" Value="11.5"/>
<ItemData ItemOID="IT.LB.LBORNRHI" Value="15.5"/>
<ItemData ItemOID="IT.LB.LBSTRESC" Value="142"/>
<ItemData ItemOID="IT.LB.LBSTRESN" Value="142"/>
<ItemData ItemOID="IT.LB.LBSTRESU" Value="g/L"/>
<ItemData ItemOID="IT.LB.LBSTNRLO" Value="115"/>
<ItemData ItemOID="IT.LB.LBSTNRHI" Value="155"/>
<ItemData ItemOID="IT.LB.LBNRIND" Value="NORMAL"/>
<ItemData ItemOID="IT.LB.LBSPEC" Value="BLOOD"/>
<ItemData ItemOID="IT.LB.LBBLFL" Value="Y"/>
<ItemData ItemOID="IT.LB.LBFAST" Value="N"/>
<ItemData ItemOID="IT.LB.VISITNUM" Value="1"/>
<ItemData ItemOID="IT.LB.VISIT" Value="SCREEN"/>
<ItemData ItemOID="IT.LB.VISITDY" Value="-13"/>
<ItemData ItemOID="IT.LB.LBDTC" Value="2003-09-19T14:45"/>
<ItemData ItemOID="IT.LB.LBDY" Value="-21"/>
</ItemGroupData>
<ItemGroupData ItemGroupOID="IG.LB" data:ItemGroupDataSeq="73">
<ItemData ItemOID="IT.STUDYID" Value="CDISC01"/>
<ItemData ItemOID="IT.LB.DOMAIN" Value="LB"/>
<ItemData ItemOID="IT.USUBJID" Value="CDISC01.200002"/>
<ItemData ItemOID="IT.LB.LBSEQ" Value="12"/>
<ItemData ItemOID="IT.LB.LBREFID" Value="B357223"/>
<ItemData ItemOID="IT.LB.LBTESTCD" Value="HGB"/>
<ItemData ItemOID="IT.LB.LBTEST" Value="Hemoglobin"/>
<ItemData ItemOID="IT.LB.LBCAT" Value="HEMATOLOGY"/>
<ItemData ItemOID="IT.LB.LBORRES" Value="13.4"/>
<ItemData ItemOID="IT.LB.LBORRESU" Value="g/dL"/>
<ItemData ItemOID="IT.LB.LBORNRLO" Value="11.5"/>
<ItemData ItemOID="IT.LB.LBORNRHI" Value="15.5"/>
<ItemData ItemOID="IT.LB.LBSTRESC" Value="134"/>
<ItemData ItemOID="IT.LB.LBSTRESN" Value="134"/>
<ItemData ItemOID="IT.LB.LBSTRESU" Value="g/L"/>
<ItemData ItemOID="IT.LB.LBSTNRLO" Value="115"/>
<ItemData ItemOID="IT.LB.LBSTNRHI" Value="155"/>
<ItemData ItemOID="IT.LB.LBNRIND" Value="NORMAL"/>
<ItemData ItemOID="IT.LB.LBSPEC" Value="BLOOD"/>
<ItemData ItemOID="IT.LB.LBFAST" Value="N"/>
<ItemData ItemOID="IT.LB.VISITNUM" Value="10"/>
<ItemData ItemOID="IT.LB.VISIT" Value="WEEK 24"/>
<ItemData ItemOID="IT.LB.VISITDY" Value="169"/>
<ItemData ItemOID="IT.LB.LBDTC" Value="2004-03-29T09:40"/>
<ItemData ItemOID="IT.LB.LBDY" Value="172"/>
</ItemGroupData>
<ItemGroupData ItemGroupOID="IG.LB" data:ItemGroupDataSeq="74">
<ItemData ItemOID="IT.STUDYID" Value="CDISC01"/>
<ItemData ItemOID="IT.LB.DOMAIN" Value="LB"/>
<ItemData ItemOID="IT.USUBJID" Value="CDISC01.200002"/>
<ItemData ItemOID="IT.LB.LBSEQ" Value="13"/>
<ItemData ItemOID="IT.LB.LBREFID" Value="B283499"/>
<ItemData ItemOID="IT.LB.LBTESTCD" Value="LYM"/>
<ItemData ItemOID="IT.LB.LBTEST" Value="Lymphocytes"/>
<ItemData ItemOID="IT.LB.LBCAT" Value="HEMATOLOGY"/>
<ItemData ItemOID="IT.LB.LBORRES" Value="0.83"/>
<ItemData ItemOID="IT.LB.LBORRESU" Value="X10^9/L"/>
<ItemData ItemOID="IT.LB.LBORNRLO" Value="1.20"/>
<ItemData ItemOID="IT.LB.LBORNRHI" Value="4.00"/>
<ItemData ItemOID="IT.LB.LBSTRESC" Value="0.83"/>
<ItemData ItemOID="IT.LB.LBSTRESN" Value="0.83"/>
<ItemData ItemOID="IT.LB.LBSTRESU" Value="10**9/L"/>
<ItemData ItemOID="IT.LB.LBSTNRLO" Value="1.2"/>
<ItemData ItemOID="IT.LB.LBSTNRHI" Value="4"/>
<ItemData ItemOID="IT.LB.LBNRIND" Value="LOW"/>
<ItemData ItemOID="IT.LB.LBSPEC" Value="BLOOD"/>
<ItemData ItemOID="IT.LB.LBBLFL" Value="Y"/>
<ItemData ItemOID="IT.LB.LBFAST" Value="N"/>
<ItemData ItemOID="IT.LB.VISITNUM" Value="1"/>
<ItemData ItemOID="IT.LB.VISIT" Value="SCREEN"/>
<ItemData ItemOID="IT.LB.VISITDY" Value="-13"/>
<ItemData ItemOID="IT.LB.LBDTC" Value="2003-09-19T14:45"/>
<ItemData ItemOID="IT.LB.LBDY" Value="-21"/>
</ItemGroupData>
<ItemGroupData ItemGroupOID="IG.LB" data:ItemGroupDataSeq="75">
<ItemData ItemOID="IT.STUDYID" Value="CDISC01"/>
<ItemData ItemOID="IT.LB.DOMAIN" Value="LB"/>
<ItemData ItemOID="IT.USUBJID" Value="CDISC01.200002"/>
<ItemData ItemOID="IT.LB.LBSEQ" Value="14"/>
<ItemData ItemOID="IT.LB.LBREFID" Value="B357223"/>
<ItemData ItemOID="IT.LB.LBTESTCD" Value="LYM"/>
<ItemData ItemOID="IT.LB.LBTEST" Value="Lymphocytes"/>
<ItemData ItemOID="IT.LB.LBCAT" Value="HEMATOLOGY"/>
<ItemData ItemOID="IT.LB.LBORRES" Value="0.75"/>
<ItemData ItemOID="IT.LB.LBORRESU" Value="X10^9/L"/>
<ItemData ItemOID="IT.LB.LBORNRLO" Value="1.20"/>
<ItemData ItemOID="IT.LB.LBORNRHI" Value="4.00"/>
<ItemData ItemOID="IT.LB.LBSTRESC" Value="0.75"/>
<ItemData ItemOID="IT.LB.LBSTRESN" Value="0.75"/>
<ItemData ItemOID="IT.LB.LBSTRESU" Value="10**9/L"/>
<ItemData ItemOID="IT.LB.LBSTNRLO" Value="1.2"/>
<ItemData ItemOID="IT.LB.LBSTNRHI" Value="4"/>
<ItemData ItemOID="IT.LB.LBNRIND" Value="LOW"/>
<ItemData ItemOID="IT.LB.LBSPEC" Value="BLOOD"/>
<ItemData ItemOID="IT.LB.LBFAST" Value="N"/>
<ItemData ItemOID="IT.LB.VISITNUM" Value="10"/>
<ItemData ItemOID="IT.LB.VISIT" Value="WEEK 24"/>
<ItemData ItemOID="IT.LB.VISITDY" Value="169"/>
<ItemData ItemOID="IT.LB.LBDTC" Value="2004-03-29T09:40"/>
<ItemData ItemOID="IT.LB.LBDY" Value="172"/>
</ItemGroupData>
<ItemGroupData ItemGroupOID="IG.LB" data:ItemGroupDataSeq="76">
<ItemData ItemOID="IT.STUDYID" Value="CDISC01"/>
<ItemData ItemOID="IT.LB.DOMAIN" Value="LB"/>
<ItemData ItemOID="IT.USUBJID" Value="CDISC01.200002"/>
<ItemData ItemOID="IT.LB.LBSEQ" Value="15"/>
<ItemData ItemOID="IT.LB.LBREFID" Value="B283499"/>
<ItemData ItemOID="IT.LB.LBTESTCD" Value="OCCBLD"/>
<ItemData ItemOID="IT.LB.LBTEST" Value="Occult Blood"/>
<ItemData ItemOID="IT.LB.LBCAT" Value="URINALYSIS"/>
<ItemData ItemOID="IT.LB.LBORRES" Value="NEGATIVE"/>
<ItemData ItemOID="IT.LB.LBSTRESC" Value="NEGATIVE"/>
<ItemData ItemOID="IT.LB.LBSTNRC" Value="NEGATIVE - NEGATIVE"/>
<ItemData ItemOID="IT.LB.LBNRIND" Value="NORMAL"/>
<ItemData ItemOID="IT.LB.LBSPEC" Value="URINE"/>
<ItemData ItemOID="IT.LB.LBBLFL" Value="Y"/>
<ItemData ItemOID="IT.LB.LBFAST" Value="N"/>
<ItemData ItemOID="IT.LB.VISITNUM" Value="1"/>
<ItemData ItemOID="IT.LB.VISIT" Value="SCREEN"/>
<ItemData ItemOID="IT.LB.VISITDY" Value="-13"/>
<ItemData ItemOID="IT.LB.LBDTC" Value="2003-09-19T14:45"/>
<ItemData ItemOID="IT.LB.LBDY" Value="-21"/>
</ItemGroupData>
<ItemGroupData ItemGroupOID="IG.LB" data:ItemGroupDataSeq="77">
<ItemData ItemOID="IT.STUDYID" Value="CDISC01"/>
<ItemData ItemOID="IT.LB.DOMAIN" Value="LB"/>
<ItemData ItemOID="IT.USUBJID" Value="CDISC01.200002"/>
<ItemData ItemOID="IT.LB.LBSEQ" Value="16"/>
<ItemData ItemOID="IT.LB.LBREFID" Value="B357223"/>
<ItemData ItemOID="IT.LB.LBTESTCD" Value="OCCBLD"/>
<ItemData ItemOID="IT.LB.LBTEST" Value="Occult Blood"/>
<ItemData ItemOID="IT.LB.LBCAT" Value="URINALYSIS"/>
<ItemData ItemOID="IT.LB.LBORRES" Value="NEGATIVE"/>
<ItemData ItemOID="IT.LB.LBSTRESC" Value="NEGATIVE"/>
<ItemData ItemOID="IT.LB.LBSTNRC" Value="NEGATIVE - NEGATIVE"/>
<ItemData ItemOID="IT.LB.LBNRIND" Value="NORMAL"/>
<ItemData ItemOID="IT.LB.LBSPEC" Value="URINE"/>
<ItemData ItemOID="IT.LB.LBFAST" Value="N"/>
<ItemData ItemOID="IT.LB.VISITNUM" Value="10"/>
<ItemData ItemOID="IT.LB.VISIT" Value="WEEK 24"/>
<ItemData ItemOID="IT.LB.VISITDY" Value="169"/>
<ItemData ItemOID="IT.LB.LBDTC" Value="2004-03-29T09:40"/>
<ItemData ItemOID="IT.LB.LBDY" Value="172"/>
</ItemGroupData>
<ItemGroupData ItemGroupOID="IG.LB" data:ItemGroupDataSeq="78">
<ItemData ItemOID="IT.STUDYID" Value="CDISC01"/>
<ItemData ItemOID="IT.LB.DOMAIN" Value="LB"/>
<ItemData ItemOID="IT.USUBJID" Value="CDISC01.200002"/>
<ItemData ItemOID="IT.LB.LBSEQ" Value="17"/>
<ItemData ItemOID="IT.LB.LBREFID" Value="B283499"/>
<ItemData ItemOID="IT.LB.LBTESTCD" Value="PH"/>
<ItemData ItemOID="IT.LB.LBTEST" Value="pH"/>
<ItemData ItemOID="IT.LB.LBCAT" Value="URINALYSIS"/>
<ItemData ItemOID="IT.LB.LBORRES" Value="7.0"/>
<ItemData ItemOID="IT.LB.LBORNRLO" Value="5.0"/>
<ItemData ItemOID="IT.LB.LBORNRHI" Value="8.0"/>
<ItemData ItemOID="IT.LB.LBSTRESC" Value="7"/>
<ItemData ItemOID="IT.LB.LBSTRESN" Value="7"/>
<ItemData ItemOID="IT.LB.LBSTNRLO" Value="5"/>
<ItemData ItemOID="IT.LB.LBSTNRHI" Value="8"/>
<ItemData ItemOID="IT.LB.LBNRIND" Value="NORMAL"/>
<ItemData ItemOID="IT.LB.LBSPEC" Value="URINE"/>
<ItemData ItemOID="IT.LB.LBBLFL" Value="Y"/>
<ItemData ItemOID="IT.LB.LBFAST" Value="N"/>
<ItemData ItemOID="IT.LB.VISITNUM" Value="1"/>
<ItemData ItemOID="IT.LB.VISIT" Value="SCREEN"/>
<ItemData ItemOID="IT.LB.VISITDY" Value="-13"/>
<ItemData ItemOID="IT.LB.LBDTC" Value="2003-09-19T14:45"/>
<ItemData ItemOID="IT.LB.LBDY" Value="-21"/>
</ItemGroupData>
<ItemGroupData ItemGroupOID="IG.LB" data:ItemGroupDataSeq="79">
<ItemData ItemOID="IT.STUDYID" Value="CDISC01"/>
<ItemData ItemOID="IT.LB.DOMAIN" Value="LB"/>
<ItemData ItemOID="IT.USUBJID" Value="CDISC01.200002"/>
<ItemData ItemOID="IT.LB.LBSEQ" Value="18"/>
<ItemData ItemOID="IT.LB.LBREFID" Value="B357223"/>
<ItemData ItemOID="IT.LB.LBTESTCD" Value="PH"/>
<ItemData ItemOID="IT.LB.LBTEST" Value="pH"/>
<ItemData ItemOID="IT.LB.LBCAT" Value="URINALYSIS"/>
<ItemData ItemOID="IT.LB.LBORRES" Value="8.0"/>
<ItemData ItemOID="IT.LB.LBORNRLO" Value="5.0"/>
<ItemData ItemOID="IT.LB.LBORNRHI" Value="8.0"/>
<ItemData ItemOID="IT.LB.LBSTRESC" Value="8"/>
<ItemData ItemOID="IT.LB.LBSTRESN" Value="8"/>
<ItemData ItemOID="IT.LB.LBSTNRLO" Value="5"/>
<ItemData ItemOID="IT.LB.LBSTNRHI" Value="8"/>
<ItemData ItemOID="IT.LB.LBNRIND" Value="NORMAL"/>
<ItemData ItemOID="IT.LB.LBSPEC" Value="URINE"/>
<ItemData ItemOID="IT.LB.LBFAST" Value="N"/>
<ItemData ItemOID="IT.LB.VISITNUM" Value="10"/>
<ItemData ItemOID="IT.LB.VISIT" Value="WEEK 24"/>
<ItemData ItemOID="IT.LB.VISITDY" Value="169"/>
<ItemData ItemOID="IT.LB.LBDTC" Value="2004-03-29T09:40"/>
<ItemData ItemOID="IT.LB.LBDY" Value="172"/>
</ItemGroupData>
<ItemGroupData ItemGroupOID="IG.LB" data:ItemGroupDataSeq="80">
<ItemData ItemOID="IT.STUDYID" Value="CDISC01"/>
<ItemData ItemOID="IT.LB.DOMAIN" Value="LB"/>
<ItemData ItemOID="IT.USUBJID" Value="CDISC01.200002"/>
<ItemData ItemOID="IT.LB.LBSEQ" Value="19"/>
<ItemData ItemOID="IT.LB.LBREFID" Value="B283499"/>
<ItemData ItemOID="IT.LB.LBTESTCD" Value="GLUC"/>
<ItemData ItemOID="IT.LB.LBTEST" Value="Glucose"/>
<ItemData ItemOID="IT.LB.LBCAT" Value="URINALYSIS"/>
<ItemData ItemOID="IT.LB.LBORRES" Value="TRACE"/>
<ItemData ItemOID="IT.LB.LBSTRESC" Value="TRACE"/>
<ItemData ItemOID="IT.LB.LBSTNRC" Value="NEGATIVE TO TRACE"/>
<ItemData ItemOID="IT.LB.LBNRIND" Value="NORMAL"/>
<ItemData ItemOID="IT.LB.LBSPEC" Value="URINE"/>
<ItemData ItemOID="IT.LB.LBMETHOD" Value="DIPSTICK"/>
<ItemData ItemOID="IT.LB.LBBLFL" Value="Y"/>
<ItemData ItemOID="IT.LB.LBFAST" Value="N"/>
<ItemData ItemOID="IT.LB.VISITNUM" Value="1"/>
<ItemData ItemOID="IT.LB.VISIT" Value="SCREEN"/>
<ItemData ItemOID="IT.LB.VISITDY" Value="-13"/>
<ItemData ItemOID="IT.LB.LBDTC" Value="2003-09-19T14:45"/>
<ItemData ItemOID="IT.LB.LBDY" Value="-21"/>
</ItemGroupData>
<ItemGroupData ItemGroupOID="IG.LB" data:ItemGroupDataSeq="81">
<ItemData ItemOID="IT.STUDYID" Value="CDISC01"/>
<ItemData ItemOID="IT.LB.DOMAIN" Value="LB"/>
<ItemData ItemOID="IT.USUBJID" Value="CDISC01.200002"/>
<ItemData ItemOID="IT.LB.LBSEQ" Value="20"/>
<ItemData ItemOID="IT.LB.LBREFID" Value="B357223"/>
<ItemData ItemOID="IT.LB.LBTESTCD" Value="GLUC"/>
<ItemData ItemOID="IT.LB.LBTEST" Value="Glucose"/>
<ItemData ItemOID="IT.LB.LBCAT" Value="URINALYSIS"/>
<ItemData ItemOID="IT.LB.LBORRES" Value="NEGATIVE"/>
<ItemData ItemOID="IT.LB.LBSTRESC" Value="NEGATIVE"/>
<ItemData ItemOID="IT.LB.LBSTNRC" Value="NEGATIVE TO TRACE"/>
<ItemData ItemOID="IT.LB.LBNRIND" Value="NORMAL"/>
<ItemData ItemOID="IT.LB.LBSPEC" Value="URINE"/>
<ItemData ItemOID="IT.LB.LBMETHOD" Value="DIPSTICK"/>
<ItemData ItemOID="IT.LB.LBFAST" Value="N"/>
<ItemData ItemOID="IT.LB.VISITNUM" Value="10"/>
<ItemData ItemOID="IT.LB.VISIT" Value="WEEK 24"/>
<ItemData ItemOID="IT.LB.VISITDY" Value="169"/>
<ItemData ItemOID="IT.LB.LBDTC" Value="2004-03-29T09:40"/>
<ItemData ItemOID="IT.LB.LBDY" Value="172"/>
</ItemGroupData>
<ItemGroupData ItemGroupOID="IG.LB" data:ItemGroupDataSeq="82">
<ItemData ItemOID="IT.STUDYID" Value="CDISC01"/>
<ItemData ItemOID="IT.LB.DOMAIN" Value="LB"/>
<ItemData ItemOID="IT.USUBJID" Value="CDISC01.200002"/>
<ItemData ItemOID="IT.LB.LBSEQ" Value="21"/>
<ItemData ItemOID="IT.LB.LBREFID" Value="B283499"/>
<ItemData ItemOID="IT.LB.LBTESTCD" Value="GLUC"/>
<ItemData ItemOID="IT.LB.LBTEST" Value="Glucose"/>
<ItemData ItemOID="IT.LB.LBCAT" Value="URINALYSIS"/>
<ItemData ItemOID="IT.LB.LBORRES" Value="20"/>
<ItemData ItemOID="IT.LB.LBORRESU" Value="mg/dL"/>
<ItemData ItemOID="IT.LB.LBORNRLO" Value="0"/>
<ItemData ItemOID="IT.LB.LBORNRHI" Value="30"/>
<ItemData ItemOID="IT.LB.LBSTRESC" Value="1.1"/>
<ItemData ItemOID="IT.LB.LBSTRESN" Value="1.1"/>
<ItemData ItemOID="IT.LB.LBSTRESU" Value="mmol/L"/>
<ItemData ItemOID="IT.LB.LBSTNRLO" Value="0"/>
<ItemData ItemOID="IT.LB.LBSTNRHI" Value="1.7"/>
<ItemData ItemOID="IT.LB.LBNRIND" Value="NORMAL"/>
<ItemData ItemOID="IT.LB.LBSPEC" Value="URINE"/>
<ItemData ItemOID="IT.LB.LBMETHOD" Value="QUANT"/>
<ItemData ItemOID="IT.LB.LBBLFL" Value="Y"/>
<ItemData ItemOID="IT.LB.LBFAST" Value="N"/>
<ItemData ItemOID="IT.LB.VISITNUM" Value="1"/>
<ItemData ItemOID="IT.LB.VISIT" Value="SCREEN"/>
<ItemData ItemOID="IT.LB.VISITDY" Value="-13"/>
<ItemData ItemOID="IT.LB.LBDTC" Value="2003-09-19T14:45"/>
<ItemData ItemOID="IT.LB.LBDY" Value="-21"/>
</ItemGroupData>
<ItemGroupData ItemGroupOID="IG.LB" data:ItemGroupDataSeq="83">
<ItemData ItemOID="IT.STUDYID" Value="CDISC01"/>
<ItemData ItemOID="IT.LB.DOMAIN" Value="LB"/>
<ItemData ItemOID="IT.USUBJID" Value="CDISC01.200002"/>
<ItemData ItemOID="IT.LB.LBSEQ" Value="22"/>
<ItemData ItemOID="IT.LB.LBREFID" Value="B357223"/>
<ItemData ItemOID="IT.LB.LBTESTCD" Value="GLUC"/>
<ItemData ItemOID="IT.LB.LBTEST" Value="Glucose"/>
<ItemData ItemOID="IT.LB.LBCAT" Value="URINALYSIS"/>
<ItemData ItemOID="IT.LB.LBORRES" Value="10"/>
<ItemData ItemOID="IT.LB.LBORRESU" Value="mg/dL"/>
<ItemData ItemOID="IT.LB.LBORNRLO" Value="0"/>
<ItemData ItemOID="IT.LB.LBORNRHI" Value="30"/>
<ItemData ItemOID="IT.LB.LBSTRESC" Value="0.6"/>
<ItemData ItemOID="IT.LB.LBSTRESN" Value="0.6"/>
<ItemData ItemOID="IT.LB.LBSTRESU" Value="mmol/L"/>
<ItemData ItemOID="IT.LB.LBSTNRLO" Value="0"/>
<ItemData ItemOID="IT.LB.LBSTNRHI" Value="1.7"/>
<ItemData ItemOID="IT.LB.LBNRIND" Value="NORMAL"/>
<ItemData ItemOID="IT.LB.LBSPEC" Value="URINE"/>
<ItemData ItemOID="IT.LB.LBMETHOD" Value="QUANT"/>
<ItemData ItemOID="IT.LB.LBFAST" Value="N"/>
<ItemData ItemOID="IT.LB.VISITNUM" Value="10"/>
<ItemData ItemOID="IT.LB.VISIT" Value="WEEK 24"/>
<ItemData ItemOID="IT.LB.VISITDY" Value="169"/>
<ItemData ItemOID="IT.LB.LBDTC" Value="2004-03-29T09:40"/>
<ItemData ItemOID="IT.LB.LBDY" Value="172"/>
</ItemGroupData>
</ClinicalData>
</ODM>
