<?xml version="1.0" encoding="UTF-8"?>
<!-- Produced from SAS data using SAS Clinical Standards Toolkit -->
<ODM
xmlns="http://www.cdisc.org/ns/odm/v1.3"
xmlns:data="http://www.cdisc.org/ns/Dataset-XML/v1.0"
ODMVersion="1.3.2"
FileType="Snapshot"
FileOID="cdisc01.SUPPEX"
PriorFileOID="www.cdisc.org.Studycdisc01-Define-XML_2.0.0"
CreationDateTime="2014-10-29T11:15:07"
data:DatasetXMLVersion="1.0.0">
<ClinicalData StudyOID="cdisc01" MetaDataVersionOID="MDV.CDISC01.SDTMIG.3.1.2.SDTM.1.2">
<ItemGroupData ItemGroupOID="IG.SUPPEX" data:ItemGroupDataSeq="1">
<ItemData ItemOID="IT.STUDYID" Value="CDISC01"/>
<ItemData ItemOID="IT.RDOMAIN" Value="EX"/>
<ItemData ItemOID="IT.USUBJID" Value="CDISC01.100008"/>
<ItemData ItemOID="IT.SUPPEX.IDVAR" Value="EXSEQ"/>
<ItemData ItemOID="IT.SUPPEX.IDVARVAL" Value="1"/>
<ItemData ItemOID="IT.SUPPEX.QNAM" Value="SMNO"/>
<ItemData ItemOID="IT.SUPPEX.QLABEL" Value="Number of Tablets Per Day"/>
<ItemData ItemOID="IT.SUPPEX.QVAL" Value="1"/>
<ItemData ItemOID="IT.SUPPEX.QORIG" Value="CRF"/>
</ItemGroupData>
<ItemGroupData ItemGroupOID="IG.SUPPEX" data:ItemGroupDataSeq="2">
<ItemData ItemOID="IT.STUDYID" Value="CDISC01"/>
<ItemData ItemOID="IT.RDOMAIN" Value="EX"/>
<ItemData ItemOID="IT.USUBJID" Value="CDISC01.100008"/>
<ItemData ItemOID="IT.SUPPEX.IDVAR" Value="EXSEQ"/>
<ItemData ItemOID="IT.SUPPEX.IDVARVAL" Value="2"/>
<ItemData ItemOID="IT.SUPPEX.QNAM" Value="SMNO"/>
<ItemData ItemOID="IT.SUPPEX.QLABEL" Value="Number of Tablets Per Day"/>
<ItemData ItemOID="IT.SUPPEX.QVAL" Value="2"/>
<ItemData ItemOID="IT.SUPPEX.QORIG" Value="CRF"/>
</ItemGroupData>
<ItemGroupData ItemGroupOID="IG.SUPPEX" data:ItemGroupDataSeq="3">
<ItemData ItemOID="IT.STUDYID" Value="CDISC01"/>
<ItemData ItemOID="IT.RDOMAIN" Value="EX"/>
<ItemData ItemOID="IT.USUBJID" Value="CDISC01.100008"/>
<ItemData ItemOID="IT.SUPPEX.IDVAR" Value="EXSEQ"/>
<ItemData ItemOID="IT.SUPPEX.IDVARVAL" Value="3"/>
<ItemData ItemOID="IT.SUPPEX.QNAM" Value="SMNO"/>
<ItemData ItemOID="IT.SUPPEX.QLABEL" Value="Number of Tablets Per Day"/>
<ItemData ItemOID="IT.SUPPEX.QVAL" Value="3"/>
<ItemData ItemOID="IT.SUPPEX.QORIG" Value="CRF"/>
</ItemGroupData>
<ItemGroupData ItemGroupOID="IG.SUPPEX" data:ItemGroupDataSeq="4">
<ItemData ItemOID="IT.STUDYID" Value="CDISC01"/>
<ItemData ItemOID="IT.RDOMAIN" Value="EX"/>
<ItemData ItemOID="IT.USUBJID" Value="CDISC01.100008"/>
<ItemData ItemOID="IT.SUPPEX.IDVAR" Value="EXSEQ"/>
<ItemData ItemOID="IT.SUPPEX.IDVARVAL" Value="4"/>
<ItemData ItemOID="IT.SUPPEX.QNAM" Value="SMNO"/>
<ItemData ItemOID="IT.SUPPEX.QLABEL" Value="Number of Tablets Per Day"/>
<ItemData ItemOID="IT.SUPPEX.QVAL" Value="4"/>
<ItemData ItemOID="IT.SUPPEX.QORIG" Value="CRF"/>
</ItemGroupData>
<ItemGroupData ItemGroupOID="IG.SUPPEX" data:ItemGroupDataSeq="5">
<ItemData ItemOID="IT.STUDYID" Value="CDISC01"/>
<ItemData ItemOID="IT.RDOMAIN" Value="EX"/>
<ItemData ItemOID="IT.USUBJID" Value="CDISC01.100014"/>
<ItemData ItemOID="IT.SUPPEX.IDVAR" Value="EXSEQ"/>
<ItemData ItemOID="IT.SUPPEX.IDVARVAL" Value="1"/>
<ItemData ItemOID="IT.SUPPEX.QNAM" Value="SMNO"/>
<ItemData ItemOID="IT.SUPPEX.QLABEL" Value="Number of Tablets Per Day"/>
<ItemData ItemOID="IT.SUPPEX.QVAL" Value="1"/>
<ItemData ItemOID="IT.SUPPEX.QORIG" Value="CRF"/>
</ItemGroupData>
<ItemGroupData ItemGroupOID="IG.SUPPEX" data:ItemGroupDataSeq="6">
<ItemData ItemOID="IT.STUDYID" Value="CDISC01"/>
<ItemData ItemOID="IT.RDOMAIN" Value="EX"/>
<ItemData ItemOID="IT.USUBJID" Value="CDISC01.100014"/>
<ItemData ItemOID="IT.SUPPEX.IDVAR" Value="EXSEQ"/>
<ItemData ItemOID="IT.SUPPEX.IDVARVAL" Value="2"/>
<ItemData ItemOID="IT.SUPPEX.QNAM" Value="SMNO"/>
<ItemData ItemOID="IT.SUPPEX.QLABEL" Value="Number of Tablets Per Day"/>
<ItemData ItemOID="IT.SUPPEX.QVAL" Value="2"/>
<ItemData ItemOID="IT.SUPPEX.QORIG" Value="CRF"/>
</ItemGroupData>
<ItemGroupData ItemGroupOID="IG.SUPPEX" data:ItemGroupDataSeq="7">
<ItemData ItemOID="IT.STUDYID" Value="CDISC01"/>
<ItemData ItemOID="IT.RDOMAIN" Value="EX"/>
<ItemData ItemOID="IT.USUBJID" Value="CDISC01.100014"/>
<ItemData ItemOID="IT.SUPPEX.IDVAR" Value="EXSEQ"/>
<ItemData ItemOID="IT.SUPPEX.IDVARVAL" Value="3"/>
<ItemData ItemOID="IT.SUPPEX.QNAM" Value="SMNO"/>
<ItemData ItemOID="IT.SUPPEX.QLABEL" Value="Number of Tablets Per Day"/>
<ItemData ItemOID="IT.SUPPEX.QVAL" Value="3"/>
<ItemData ItemOID="IT.SUPPEX.QORIG" Value="CRF"/>
</ItemGroupData>
<ItemGroupData ItemGroupOID="IG.SUPPEX" data:ItemGroupDataSeq="8">
<ItemData ItemOID="IT.STUDYID" Value="CDISC01"/>
<ItemData ItemOID="IT.RDOMAIN" Value="EX"/>
<ItemData ItemOID="IT.USUBJID" Value="CDISC01.200001"/>
<ItemData ItemOID="IT.SUPPEX.IDVAR" Value="EXSEQ"/>
<ItemData ItemOID="IT.SUPPEX.IDVARVAL" Value="1"/>
<ItemData ItemOID="IT.SUPPEX.QNAM" Value="SMNO"/>
<ItemData ItemOID="IT.SUPPEX.QLABEL" Value="Number of Tablets Per Day"/>
<ItemData ItemOID="IT.SUPPEX.QVAL" Value="1"/>
<ItemData ItemOID="IT.SUPPEX.QORIG" Value="CRF"/>
</ItemGroupData>
<ItemGroupData ItemGroupOID="IG.SUPPEX" data:ItemGroupDataSeq="9">
<ItemData ItemOID="IT.STUDYID" Value="CDISC01"/>
<ItemData ItemOID="IT.RDOMAIN" Value="EX"/>
<ItemData ItemOID="IT.USUBJID" Value="CDISC01.200001"/>
<ItemData ItemOID="IT.SUPPEX.IDVAR" Value="EXSEQ"/>
<ItemData ItemOID="IT.SUPPEX.IDVARVAL" Value="2"/>
<ItemData ItemOID="IT.SUPPEX.QNAM" Value="SMNO"/>
<ItemData ItemOID="IT.SUPPEX.QLABEL" Value="Number of Tablets Per Day"/>
<ItemData ItemOID="IT.SUPPEX.QVAL" Value="2"/>
<ItemData ItemOID="IT.SUPPEX.QORIG" Value="CRF"/>
</ItemGroupData>
<ItemGroupData ItemGroupOID="IG.SUPPEX" data:ItemGroupDataSeq="10">
<ItemData ItemOID="IT.STUDYID" Value="CDISC01"/>
<ItemData ItemOID="IT.RDOMAIN" Value="EX"/>
<ItemData ItemOID="IT.USUBJID" Value="CDISC01.200001"/>
<ItemData ItemOID="IT.SUPPEX.IDVAR" Value="EXSEQ"/>
<ItemData ItemOID="IT.SUPPEX.IDVARVAL" Value="3"/>
<ItemData ItemOID="IT.SUPPEX.QNAM" Value="SMNO"/>
<ItemData ItemOID="IT.SUPPEX.QLABEL" Value="Number of Tablets Per Day"/>
<ItemData ItemOID="IT.SUPPEX.QVAL" Value="3"/>
<ItemData ItemOID="IT.SUPPEX.QORIG" Value="CRF"/>
</ItemGroupData>
<ItemGroupData ItemGroupOID="IG.SUPPEX" data:ItemGroupDataSeq="11">
<ItemData ItemOID="IT.STUDYID" Value="CDISC01"/>
<ItemData ItemOID="IT.RDOMAIN" Value="EX"/>
<ItemData ItemOID="IT.USUBJID" Value="CDISC01.200001"/>
<ItemData ItemOID="IT.SUPPEX.IDVAR" Value="EXSEQ"/>
<ItemData ItemOID="IT.SUPPEX.IDVARVAL" Value="4"/>
<ItemData ItemOID="IT.SUPPEX.QNAM" Value="SMNO"/>
<ItemData ItemOID="IT.SUPPEX.QLABEL" Value="Number of Tablets Per Day"/>
<ItemData ItemOID="IT.SUPPEX.QVAL" Value="4"/>
<ItemData ItemOID="IT.SUPPEX.QORIG" Value="CRF"/>
</ItemGroupData>
<ItemGroupData ItemGroupOID="IG.SUPPEX" data:ItemGroupDataSeq="12">
<ItemData ItemOID="IT.STUDYID" Value="CDISC01"/>
<ItemData ItemOID="IT.RDOMAIN" Value="EX"/>
<ItemData ItemOID="IT.USUBJID" Value="CDISC01.200002"/>
<ItemData ItemOID="IT.SUPPEX.IDVAR" Value="EXSEQ"/>
<ItemData ItemOID="IT.SUPPEX.IDVARVAL" Value="1"/>
<ItemData ItemOID="IT.SUPPEX.QNAM" Value="SMNO"/>
<ItemData ItemOID="IT.SUPPEX.QLABEL" Value="Number of Tablets Per Day"/>
<ItemData ItemOID="IT.SUPPEX.QVAL" Value="1"/>
<ItemData ItemOID="IT.SUPPEX.QORIG" Value="CRF"/>
</ItemGroupData>
<ItemGroupData ItemGroupOID="IG.SUPPEX" data:ItemGroupDataSeq="13">
<ItemData ItemOID="IT.STUDYID" Value="CDISC01"/>
<ItemData ItemOID="IT.RDOMAIN" Value="EX"/>
<ItemData ItemOID="IT.USUBJID" Value="CDISC01.200002"/>
<ItemData ItemOID="IT.SUPPEX.IDVAR" Value="EXSEQ"/>
<ItemData ItemOID="IT.SUPPEX.IDVARVAL" Value="2"/>
<ItemData ItemOID="IT.SUPPEX.QNAM" Value="SMNO"/>
<ItemData ItemOID="IT.SUPPEX.QLABEL" Value="Number of Tablets Per Day"/>
<ItemData ItemOID="IT.SUPPEX.QVAL" Value="0"/>
<ItemData ItemOID="IT.SUPPEX.QORIG" Value="CRF"/>
</ItemGroupData>
<ItemGroupData ItemGroupOID="IG.SUPPEX" data:ItemGroupDataSeq="14">
<ItemData ItemOID="IT.STUDYID" Value="CDISC01"/>
<ItemData ItemOID="IT.RDOMAIN" Value="EX"/>
<ItemData ItemOID="IT.USUBJID" Value="CDISC01.200002"/>
<ItemData ItemOID="IT.SUPPEX.IDVAR" Value="EXSEQ"/>
<ItemData ItemOID="IT.SUPPEX.IDVARVAL" Value="3"/>
<ItemData ItemOID="IT.SUPPEX.QNAM" Value="SMNO"/>
<ItemData ItemOID="IT.SUPPEX.QLABEL" Value="Number of Tablets Per Day"/>
<ItemData ItemOID="IT.SUPPEX.QVAL" Value="2"/>
<ItemData ItemOID="IT.SUPPEX.QORIG" Value="CRF"/>
</ItemGroupData>
<ItemGroupData ItemGroupOID="IG.SUPPEX" data:ItemGroupDataSeq="15">
<ItemData ItemOID="IT.STUDYID" Value="CDISC01"/>
<ItemData ItemOID="IT.RDOMAIN" Value="EX"/>
<ItemData ItemOID="IT.USUBJID" Value="CDISC01.200002"/>
<ItemData ItemOID="IT.SUPPEX.IDVAR" Value="EXSEQ"/>
<ItemData ItemOID="IT.SUPPEX.IDVARVAL" Value="4"/>
<ItemData ItemOID="IT.SUPPEX.QNAM" Value="SMNO"/>
<ItemData ItemOID="IT.SUPPEX.QLABEL" Value="Number of Tablets Per Day"/>
<ItemData ItemOID="IT.SUPPEX.QVAL" Value="3"/>
<ItemData ItemOID="IT.SUPPEX.QORIG" Value="CRF"/>
</ItemGroupData>
<ItemGroupData ItemGroupOID="IG.SUPPEX" data:ItemGroupDataSeq="16">
<ItemData ItemOID="IT.STUDYID" Value="CDISC01"/>
<ItemData ItemOID="IT.RDOMAIN" Value="EX"/>
<ItemData ItemOID="IT.USUBJID" Value="CDISC01.200002"/>
<ItemData ItemOID="IT.SUPPEX.IDVAR" Value="EXSEQ"/>
<ItemData ItemOID="IT.SUPPEX.IDVARVAL" Value="5"/>
<ItemData ItemOID="IT.SUPPEX.QNAM" Value="SMNO"/>
<ItemData ItemOID="IT.SUPPEX.QLABEL" Value="Number of Tablets Per Day"/>
<ItemData ItemOID="IT.SUPPEX.QVAL" Value="4"/>
<ItemData ItemOID="IT.SUPPEX.QORIG" Value="CRF"/>
</ItemGroupData>
<ItemGroupData ItemGroupOID="IG.SUPPEX" data:ItemGroupDataSeq="17">
<ItemData ItemOID="IT.STUDYID" Value="CDISC01"/>
<ItemData ItemOID="IT.RDOMAIN" Value="EX"/>
<ItemData ItemOID="IT.USUBJID" Value="CDISC01.200002"/>
<ItemData ItemOID="IT.SUPPEX.IDVAR" Value="EXSEQ"/>
<ItemData ItemOID="IT.SUPPEX.IDVARVAL" Value="6"/>
<ItemData ItemOID="IT.SUPPEX.QNAM" Value="SMNO"/>
<ItemData ItemOID="IT.SUPPEX.QLABEL" Value="Number of Tablets Per Day"/>
<ItemData ItemOID="IT.SUPPEX.QVAL" Value="0"/>
<ItemData ItemOID="IT.SUPPEX.QORIG" Value="CRF"/>
</ItemGroupData>
</ClinicalData>
</ODM>
