<?xml version="1.0" encoding="UTF-8"?>
<!-- Produced from SAS data using SAS Clinical Standards Toolkit -->
<ODM
xmlns="http://www.cdisc.org/ns/odm/v1.3"
xmlns:data="http://www.cdisc.org/ns/Dataset-XML/v1.0"
ODMVersion="1.3.2"
FileType="Snapshot"
FileOID="cdisc01.SUPPLB"
PriorFileOID="www.cdisc.org.Studycdisc01-Define-XML_2.0.0"
CreationDateTime="2014-10-29T11:15:08"
data:DatasetXMLVersion="1.0.0">
<ClinicalData StudyOID="cdisc01" MetaDataVersionOID="MDV.CDISC01.SDTMIG.3.1.2.SDTM.1.2">
<ItemGroupData ItemGroupOID="IG.SUPPLB" data:ItemGroupDataSeq="1">
<ItemData ItemOID="IT.STUDYID" Value="CDISC01"/>
<ItemData ItemOID="IT.RDOMAIN" Value="LB"/>
<ItemData ItemOID="IT.USUBJID" Value="CDISC01.100008"/>
<ItemData ItemOID="IT.SUPPLB.IDVAR" Value="LBSEQ"/>
<ItemData ItemOID="IT.SUPPLB.IDVARVAL" Value="10"/>
<ItemData ItemOID="IT.SUPPLB.QNAM" Value="LBCLSIG"/>
<ItemData ItemOID="IT.SUPPLB.QLABEL" Value="Clinically Significant"/>
<ItemData ItemOID="IT.SUPPLB.QVAL" Value="Y"/>
<ItemData ItemOID="IT.SUPPLB.QORIG" Value="Derived"/>
<ItemData ItemOID="IT.SUPPLB.QEVAL" Value="CLINICAL STUDY SPONSOR"/>
</ItemGroupData>
<ItemGroupData ItemGroupOID="IG.SUPPLB" data:ItemGroupDataSeq="2">
<ItemData ItemOID="IT.STUDYID" Value="CDISC01"/>
<ItemData ItemOID="IT.RDOMAIN" Value="LB"/>
<ItemData ItemOID="IT.USUBJID" Value="CDISC01.100008"/>
<ItemData ItemOID="IT.SUPPLB.IDVAR" Value="LBSEQ"/>
<ItemData ItemOID="IT.SUPPLB.IDVARVAL" Value="12"/>
<ItemData ItemOID="IT.SUPPLB.QNAM" Value="LBCLSIG"/>
<ItemData ItemOID="IT.SUPPLB.QLABEL" Value="Clinically Significant"/>
<ItemData ItemOID="IT.SUPPLB.QVAL" Value="Y"/>
<ItemData ItemOID="IT.SUPPLB.QORIG" Value="Derived"/>
<ItemData ItemOID="IT.SUPPLB.QEVAL" Value="CLINICAL STUDY SPONSOR"/>
</ItemGroupData>
</ClinicalData>
</ODM>
