<?xml version="1.0" encoding="UTF-8"?>
<!-- Produced from SAS data using SAS Clinical Standards Toolkit -->
<ODM
xmlns="http://www.cdisc.org/ns/odm/v1.3"
xmlns:data="http://www.cdisc.org/ns/Dataset-XML/v1.0"
ODMVersion="1.3.2"
FileType="Snapshot"
FileOID="cdisc01.SUPPAE"
PriorFileOID="www.cdisc.org.Studycdisc01-Define-XML_2.0.0"
CreationDateTime="2014-10-29T11:15:06"
data:DatasetXMLVersion="1.0.0">
<ClinicalData StudyOID="cdisc01" MetaDataVersionOID="MDV.CDISC01.SDTMIG.3.1.2.SDTM.1.2">
<ItemGroupData ItemGroupOID="IG.SUPPAE" data:ItemGroupDataSeq="1">
<ItemData ItemOID="IT.STUDYID" Value="CDISC01"/>
<ItemData ItemOID="IT.RDOMAIN" Value="AE"/>
<ItemData ItemOID="IT.USUBJID" Value="CDISC01.100008"/>
<ItemData ItemOID="IT.SUPPAE.IDVAR" Value="AESEQ"/>
<ItemData ItemOID="IT.SUPPAE.IDVARVAL" Value="1"/>
<ItemData ItemOID="IT.SUPPAE.QNAM" Value="AETRTEM"/>
<ItemData ItemOID="IT.SUPPAE.QLABEL" Value="Treatment Emergent Flag"/>
<ItemData ItemOID="IT.SUPPAE.QVAL" Value="Y"/>
<ItemData ItemOID="IT.SUPPAE.QORIG" Value="Derived"/>
</ItemGroupData>
<ItemGroupData ItemGroupOID="IG.SUPPAE" data:ItemGroupDataSeq="2">
<ItemData ItemOID="IT.STUDYID" Value="CDISC01"/>
<ItemData ItemOID="IT.RDOMAIN" Value="AE"/>
<ItemData ItemOID="IT.USUBJID" Value="CDISC01.100008"/>
<ItemData ItemOID="IT.SUPPAE.IDVAR" Value="AESEQ"/>
<ItemData ItemOID="IT.SUPPAE.IDVARVAL" Value="1"/>
<ItemData ItemOID="IT.SUPPAE.QNAM" Value="HLGT"/>
<ItemData ItemOID="IT.SUPPAE.QLABEL" Value="Higher Level Group Term"/>
<ItemData ItemOID="IT.SUPPAE.QVAL" Value="Anxiety disorders and symptoms"/>
<ItemData ItemOID="IT.SUPPAE.QORIG" Value="Assigned"/>
<ItemData ItemOID="IT.SUPPAE.QEVAL" Value="CLINICAL STUDY SPONSOR"/>
</ItemGroupData>
<ItemGroupData ItemGroupOID="IG.SUPPAE" data:ItemGroupDataSeq="3">
<ItemData ItemOID="IT.STUDYID" Value="CDISC01"/>
<ItemData ItemOID="IT.RDOMAIN" Value="AE"/>
<ItemData ItemOID="IT.USUBJID" Value="CDISC01.100008"/>
<ItemData ItemOID="IT.SUPPAE.IDVAR" Value="AESEQ"/>
<ItemData ItemOID="IT.SUPPAE.IDVARVAL" Value="1"/>
<ItemData ItemOID="IT.SUPPAE.QNAM" Value="HLT"/>
<ItemData ItemOID="IT.SUPPAE.QLABEL" Value="Higher Level Term"/>
<ItemData ItemOID="IT.SUPPAE.QVAL" Value="Anxiety symptoms"/>
<ItemData ItemOID="IT.SUPPAE.QORIG" Value="Assigned"/>
<ItemData ItemOID="IT.SUPPAE.QEVAL" Value="CLINICAL STUDY SPONSOR"/>
</ItemGroupData>
<ItemGroupData ItemGroupOID="IG.SUPPAE" data:ItemGroupDataSeq="4">
<ItemData ItemOID="IT.STUDYID" Value="CDISC01"/>
<ItemData ItemOID="IT.RDOMAIN" Value="AE"/>
<ItemData ItemOID="IT.USUBJID" Value="CDISC01.100008"/>
<ItemData ItemOID="IT.SUPPAE.IDVAR" Value="AESEQ"/>
<ItemData ItemOID="IT.SUPPAE.IDVARVAL" Value="1"/>
<ItemData ItemOID="IT.SUPPAE.QNAM" Value="LLT"/>
<ItemData ItemOID="IT.SUPPAE.QLABEL" Value="Lowest Level Term"/>
<ItemData ItemOID="IT.SUPPAE.QVAL" Value="Agitation"/>
<ItemData ItemOID="IT.SUPPAE.QORIG" Value="Assigned"/>
<ItemData ItemOID="IT.SUPPAE.QEVAL" Value="CLINICAL STUDY SPONSOR"/>
</ItemGroupData>
<ItemGroupData ItemGroupOID="IG.SUPPAE" data:ItemGroupDataSeq="5">
<ItemData ItemOID="IT.STUDYID" Value="CDISC01"/>
<ItemData ItemOID="IT.RDOMAIN" Value="AE"/>
<ItemData ItemOID="IT.USUBJID" Value="CDISC01.100008"/>
<ItemData ItemOID="IT.SUPPAE.IDVAR" Value="AESEQ"/>
<ItemData ItemOID="IT.SUPPAE.IDVARVAL" Value="2"/>
<ItemData ItemOID="IT.SUPPAE.QNAM" Value="AETRTEM"/>
<ItemData ItemOID="IT.SUPPAE.QLABEL" Value="Treatment Emergent Flag"/>
<ItemData ItemOID="IT.SUPPAE.QVAL" Value="Y"/>
<ItemData ItemOID="IT.SUPPAE.QORIG" Value="Derived"/>
</ItemGroupData>
<ItemGroupData ItemGroupOID="IG.SUPPAE" data:ItemGroupDataSeq="6">
<ItemData ItemOID="IT.STUDYID" Value="CDISC01"/>
<ItemData ItemOID="IT.RDOMAIN" Value="AE"/>
<ItemData ItemOID="IT.USUBJID" Value="CDISC01.100008"/>
<ItemData ItemOID="IT.SUPPAE.IDVAR" Value="AESEQ"/>
<ItemData ItemOID="IT.SUPPAE.IDVARVAL" Value="2"/>
<ItemData ItemOID="IT.SUPPAE.QNAM" Value="HLGT"/>
<ItemData ItemOID="IT.SUPPAE.QLABEL" Value="Higher Level Group Term"/>
<ItemData ItemOID="IT.SUPPAE.QVAL" Value="Anxiety disorders and symptoms"/>
<ItemData ItemOID="IT.SUPPAE.QORIG" Value="Assigned"/>
<ItemData ItemOID="IT.SUPPAE.QEVAL" Value="CLINICAL STUDY SPONSOR"/>
</ItemGroupData>
<ItemGroupData ItemGroupOID="IG.SUPPAE" data:ItemGroupDataSeq="7">
<ItemData ItemOID="IT.STUDYID" Value="CDISC01"/>
<ItemData ItemOID="IT.RDOMAIN" Value="AE"/>
<ItemData ItemOID="IT.USUBJID" Value="CDISC01.100008"/>
<ItemData ItemOID="IT.SUPPAE.IDVAR" Value="AESEQ"/>
<ItemData ItemOID="IT.SUPPAE.IDVARVAL" Value="2"/>
<ItemData ItemOID="IT.SUPPAE.QNAM" Value="HLT"/>
<ItemData ItemOID="IT.SUPPAE.QLABEL" Value="Higher Level Term"/>
<ItemData ItemOID="IT.SUPPAE.QVAL" Value="Anxiety symptoms"/>
<ItemData ItemOID="IT.SUPPAE.QORIG" Value="Assigned"/>
<ItemData ItemOID="IT.SUPPAE.QEVAL" Value="CLINICAL STUDY SPONSOR"/>
</ItemGroupData>
<ItemGroupData ItemGroupOID="IG.SUPPAE" data:ItemGroupDataSeq="8">
<ItemData ItemOID="IT.STUDYID" Value="CDISC01"/>
<ItemData ItemOID="IT.RDOMAIN" Value="AE"/>
<ItemData ItemOID="IT.USUBJID" Value="CDISC01.100008"/>
<ItemData ItemOID="IT.SUPPAE.IDVAR" Value="AESEQ"/>
<ItemData ItemOID="IT.SUPPAE.IDVARVAL" Value="2"/>
<ItemData ItemOID="IT.SUPPAE.QNAM" Value="LLT"/>
<ItemData ItemOID="IT.SUPPAE.QLABEL" Value="Lowest Level Term"/>
<ItemData ItemOID="IT.SUPPAE.QVAL" Value="Anxiety"/>
<ItemData ItemOID="IT.SUPPAE.QORIG" Value="Assigned"/>
<ItemData ItemOID="IT.SUPPAE.QEVAL" Value="CLINICAL STUDY SPONSOR"/>
</ItemGroupData>
<ItemGroupData ItemGroupOID="IG.SUPPAE" data:ItemGroupDataSeq="9">
<ItemData ItemOID="IT.STUDYID" Value="CDISC01"/>
<ItemData ItemOID="IT.RDOMAIN" Value="AE"/>
<ItemData ItemOID="IT.USUBJID" Value="CDISC01.100008"/>
<ItemData ItemOID="IT.SUPPAE.IDVAR" Value="AESEQ"/>
<ItemData ItemOID="IT.SUPPAE.IDVARVAL" Value="3"/>
<ItemData ItemOID="IT.SUPPAE.QNAM" Value="AETRTEM"/>
<ItemData ItemOID="IT.SUPPAE.QLABEL" Value="Treatment Emergent Flag"/>
<ItemData ItemOID="IT.SUPPAE.QVAL" Value="Y"/>
<ItemData ItemOID="IT.SUPPAE.QORIG" Value="Derived"/>
</ItemGroupData>
<ItemGroupData ItemGroupOID="IG.SUPPAE" data:ItemGroupDataSeq="10">
<ItemData ItemOID="IT.STUDYID" Value="CDISC01"/>
<ItemData ItemOID="IT.RDOMAIN" Value="AE"/>
<ItemData ItemOID="IT.USUBJID" Value="CDISC01.100008"/>
<ItemData ItemOID="IT.SUPPAE.IDVAR" Value="AESEQ"/>
<ItemData ItemOID="IT.SUPPAE.IDVARVAL" Value="3"/>
<ItemData ItemOID="IT.SUPPAE.QNAM" Value="HLGT"/>
<ItemData ItemOID="IT.SUPPAE.QLABEL" Value="Higher Level Group Term"/>
<ItemData ItemOID="IT.SUPPAE.QVAL" Value="Appetite and general nutritional disorders"/>
<ItemData ItemOID="IT.SUPPAE.QORIG" Value="Assigned"/>
<ItemData ItemOID="IT.SUPPAE.QEVAL" Value="CLINICAL STUDY SPONSOR"/>
</ItemGroupData>
<ItemGroupData ItemGroupOID="IG.SUPPAE" data:ItemGroupDataSeq="11">
<ItemData ItemOID="IT.STUDYID" Value="CDISC01"/>
<ItemData ItemOID="IT.RDOMAIN" Value="AE"/>
<ItemData ItemOID="IT.USUBJID" Value="CDISC01.100008"/>
<ItemData ItemOID="IT.SUPPAE.IDVAR" Value="AESEQ"/>
<ItemData ItemOID="IT.SUPPAE.IDVARVAL" Value="3"/>
<ItemData ItemOID="IT.SUPPAE.QNAM" Value="HLT"/>
<ItemData ItemOID="IT.SUPPAE.QLABEL" Value="Higher Level Term"/>
<ItemData ItemOID="IT.SUPPAE.QVAL" Value="Appetite disorders"/>
<ItemData ItemOID="IT.SUPPAE.QORIG" Value="Assigned"/>
<ItemData ItemOID="IT.SUPPAE.QEVAL" Value="CLINICAL STUDY SPONSOR"/>
</ItemGroupData>
<ItemGroupData ItemGroupOID="IG.SUPPAE" data:ItemGroupDataSeq="12">
<ItemData ItemOID="IT.STUDYID" Value="CDISC01"/>
<ItemData ItemOID="IT.RDOMAIN" Value="AE"/>
<ItemData ItemOID="IT.USUBJID" Value="CDISC01.100008"/>
<ItemData ItemOID="IT.SUPPAE.IDVAR" Value="AESEQ"/>
<ItemData ItemOID="IT.SUPPAE.IDVARVAL" Value="3"/>
<ItemData ItemOID="IT.SUPPAE.QNAM" Value="LLT"/>
<ItemData ItemOID="IT.SUPPAE.QLABEL" Value="Lowest Level Term"/>
<ItemData ItemOID="IT.SUPPAE.QVAL" Value="Decreased appetite"/>
<ItemData ItemOID="IT.SUPPAE.QORIG" Value="Assigned"/>
<ItemData ItemOID="IT.SUPPAE.QEVAL" Value="CLINICAL STUDY SPONSOR"/>
</ItemGroupData>
<ItemGroupData ItemGroupOID="IG.SUPPAE" data:ItemGroupDataSeq="13">
<ItemData ItemOID="IT.STUDYID" Value="CDISC01"/>
<ItemData ItemOID="IT.RDOMAIN" Value="AE"/>
<ItemData ItemOID="IT.USUBJID" Value="CDISC01.100014"/>
<ItemData ItemOID="IT.SUPPAE.IDVAR" Value="AESEQ"/>
<ItemData ItemOID="IT.SUPPAE.IDVARVAL" Value="1"/>
<ItemData ItemOID="IT.SUPPAE.QNAM" Value="AETRTEM"/>
<ItemData ItemOID="IT.SUPPAE.QLABEL" Value="Treatment Emergent Flag"/>
<ItemData ItemOID="IT.SUPPAE.QVAL" Value="Y"/>
<ItemData ItemOID="IT.SUPPAE.QORIG" Value="Derived"/>
</ItemGroupData>
<ItemGroupData ItemGroupOID="IG.SUPPAE" data:ItemGroupDataSeq="14">
<ItemData ItemOID="IT.STUDYID" Value="CDISC01"/>
<ItemData ItemOID="IT.RDOMAIN" Value="AE"/>
<ItemData ItemOID="IT.USUBJID" Value="CDISC01.100014"/>
<ItemData ItemOID="IT.SUPPAE.IDVAR" Value="AESEQ"/>
<ItemData ItemOID="IT.SUPPAE.IDVARVAL" Value="1"/>
<ItemData ItemOID="IT.SUPPAE.QNAM" Value="HLGT"/>
<ItemData ItemOID="IT.SUPPAE.QLABEL" Value="Higher Level Group Term"/>
<ItemData ItemOID="IT.SUPPAE.QVAL" Value="Gastrointestinal motility and defaecation conditions"/>
<ItemData ItemOID="IT.SUPPAE.QORIG" Value="Assigned"/>
<ItemData ItemOID="IT.SUPPAE.QEVAL" Value="CLINICAL STUDY SPONSOR"/>
</ItemGroupData>
<ItemGroupData ItemGroupOID="IG.SUPPAE" data:ItemGroupDataSeq="15">
<ItemData ItemOID="IT.STUDYID" Value="CDISC01"/>
<ItemData ItemOID="IT.RDOMAIN" Value="AE"/>
<ItemData ItemOID="IT.USUBJID" Value="CDISC01.100014"/>
<ItemData ItemOID="IT.SUPPAE.IDVAR" Value="AESEQ"/>
<ItemData ItemOID="IT.SUPPAE.IDVARVAL" Value="1"/>
<ItemData ItemOID="IT.SUPPAE.QNAM" Value="HLT"/>
<ItemData ItemOID="IT.SUPPAE.QLABEL" Value="Higher Level Term"/>
<ItemData ItemOID="IT.SUPPAE.QVAL" Value="Diarrhoea (excl infective)"/>
<ItemData ItemOID="IT.SUPPAE.QORIG" Value="Assigned"/>
<ItemData ItemOID="IT.SUPPAE.QEVAL" Value="CLINICAL STUDY SPONSOR"/>
</ItemGroupData>
<ItemGroupData ItemGroupOID="IG.SUPPAE" data:ItemGroupDataSeq="16">
<ItemData ItemOID="IT.STUDYID" Value="CDISC01"/>
<ItemData ItemOID="IT.RDOMAIN" Value="AE"/>
<ItemData ItemOID="IT.USUBJID" Value="CDISC01.100014"/>
<ItemData ItemOID="IT.SUPPAE.IDVAR" Value="AESEQ"/>
<ItemData ItemOID="IT.SUPPAE.IDVARVAL" Value="1"/>
<ItemData ItemOID="IT.SUPPAE.QNAM" Value="LLT"/>
<ItemData ItemOID="IT.SUPPAE.QLABEL" Value="Lowest Level Term"/>
<ItemData ItemOID="IT.SUPPAE.QVAL" Value="Diarrhea"/>
<ItemData ItemOID="IT.SUPPAE.QORIG" Value="Assigned"/>
<ItemData ItemOID="IT.SUPPAE.QEVAL" Value="CLINICAL STUDY SPONSOR"/>
</ItemGroupData>
<ItemGroupData ItemGroupOID="IG.SUPPAE" data:ItemGroupDataSeq="17">
<ItemData ItemOID="IT.STUDYID" Value="CDISC01"/>
<ItemData ItemOID="IT.RDOMAIN" Value="AE"/>
<ItemData ItemOID="IT.USUBJID" Value="CDISC01.100014"/>
<ItemData ItemOID="IT.SUPPAE.IDVAR" Value="AESEQ"/>
<ItemData ItemOID="IT.SUPPAE.IDVARVAL" Value="2"/>
<ItemData ItemOID="IT.SUPPAE.QNAM" Value="AETRTEM"/>
<ItemData ItemOID="IT.SUPPAE.QLABEL" Value="Treatment Emergent Flag"/>
<ItemData ItemOID="IT.SUPPAE.QVAL" Value="Y"/>
<ItemData ItemOID="IT.SUPPAE.QORIG" Value="Derived"/>
</ItemGroupData>
<ItemGroupData ItemGroupOID="IG.SUPPAE" data:ItemGroupDataSeq="18">
<ItemData ItemOID="IT.STUDYID" Value="CDISC01"/>
<ItemData ItemOID="IT.RDOMAIN" Value="AE"/>
<ItemData ItemOID="IT.USUBJID" Value="CDISC01.100014"/>
<ItemData ItemOID="IT.SUPPAE.IDVAR" Value="AESEQ"/>
<ItemData ItemOID="IT.SUPPAE.IDVARVAL" Value="2"/>
<ItemData ItemOID="IT.SUPPAE.QNAM" Value="HLGT"/>
<ItemData ItemOID="IT.SUPPAE.QLABEL" Value="Higher Level Group Term"/>
<ItemData ItemOID="IT.SUPPAE.QVAL" Value="Gastrointestinal vascular conditions"/>
<ItemData ItemOID="IT.SUPPAE.QORIG" Value="Assigned"/>
<ItemData ItemOID="IT.SUPPAE.QEVAL" Value="CLINICAL STUDY SPONSOR"/>
</ItemGroupData>
<ItemGroupData ItemGroupOID="IG.SUPPAE" data:ItemGroupDataSeq="19">
<ItemData ItemOID="IT.STUDYID" Value="CDISC01"/>
<ItemData ItemOID="IT.RDOMAIN" Value="AE"/>
<ItemData ItemOID="IT.USUBJID" Value="CDISC01.100014"/>
<ItemData ItemOID="IT.SUPPAE.IDVAR" Value="AESEQ"/>
<ItemData ItemOID="IT.SUPPAE.IDVARVAL" Value="2"/>
<ItemData ItemOID="IT.SUPPAE.QNAM" Value="HLT"/>
<ItemData ItemOID="IT.SUPPAE.QLABEL" Value="Higher Level Term"/>
<ItemData ItemOID="IT.SUPPAE.QVAL" Value="Haemorrhoids and gastrointestinal varices (excl oesophageal)"/>
<ItemData ItemOID="IT.SUPPAE.QORIG" Value="Assigned"/>
<ItemData ItemOID="IT.SUPPAE.QEVAL" Value="CLINICAL STUDY SPONSOR"/>
</ItemGroupData>
<ItemGroupData ItemGroupOID="IG.SUPPAE" data:ItemGroupDataSeq="20">
<ItemData ItemOID="IT.STUDYID" Value="CDISC01"/>
<ItemData ItemOID="IT.RDOMAIN" Value="AE"/>
<ItemData ItemOID="IT.USUBJID" Value="CDISC01.100014"/>
<ItemData ItemOID="IT.SUPPAE.IDVAR" Value="AESEQ"/>
<ItemData ItemOID="IT.SUPPAE.IDVARVAL" Value="2"/>
<ItemData ItemOID="IT.SUPPAE.QNAM" Value="LLT"/>
<ItemData ItemOID="IT.SUPPAE.QLABEL" Value="Lowest Level Term"/>
<ItemData ItemOID="IT.SUPPAE.QVAL" Value="Hemorrhoids"/>
<ItemData ItemOID="IT.SUPPAE.QORIG" Value="Assigned"/>
<ItemData ItemOID="IT.SUPPAE.QEVAL" Value="CLINICAL STUDY SPONSOR"/>
</ItemGroupData>
<ItemGroupData ItemGroupOID="IG.SUPPAE" data:ItemGroupDataSeq="21">
<ItemData ItemOID="IT.STUDYID" Value="CDISC01"/>
<ItemData ItemOID="IT.RDOMAIN" Value="AE"/>
<ItemData ItemOID="IT.USUBJID" Value="CDISC01.100014"/>
<ItemData ItemOID="IT.SUPPAE.IDVAR" Value="AESEQ"/>
<ItemData ItemOID="IT.SUPPAE.IDVARVAL" Value="3"/>
<ItemData ItemOID="IT.SUPPAE.QNAM" Value="AETRTEM"/>
<ItemData ItemOID="IT.SUPPAE.QLABEL" Value="Treatment Emergent Flag"/>
<ItemData ItemOID="IT.SUPPAE.QVAL" Value="Y"/>
<ItemData ItemOID="IT.SUPPAE.QORIG" Value="Derived"/>
</ItemGroupData>
<ItemGroupData ItemGroupOID="IG.SUPPAE" data:ItemGroupDataSeq="22">
<ItemData ItemOID="IT.STUDYID" Value="CDISC01"/>
<ItemData ItemOID="IT.RDOMAIN" Value="AE"/>
<ItemData ItemOID="IT.USUBJID" Value="CDISC01.100014"/>
<ItemData ItemOID="IT.SUPPAE.IDVAR" Value="AESEQ"/>
<ItemData ItemOID="IT.SUPPAE.IDVARVAL" Value="3"/>
<ItemData ItemOID="IT.SUPPAE.QNAM" Value="HLGT"/>
<ItemData ItemOID="IT.SUPPAE.QLABEL" Value="Higher Level Group Term"/>
<ItemData ItemOID="IT.SUPPAE.QVAL" Value="Headaches"/>
<ItemData ItemOID="IT.SUPPAE.QORIG" Value="Assigned"/>
<ItemData ItemOID="IT.SUPPAE.QEVAL" Value="CLINICAL STUDY SPONSOR"/>
</ItemGroupData>
<ItemGroupData ItemGroupOID="IG.SUPPAE" data:ItemGroupDataSeq="23">
<ItemData ItemOID="IT.STUDYID" Value="CDISC01"/>
<ItemData ItemOID="IT.RDOMAIN" Value="AE"/>
<ItemData ItemOID="IT.USUBJID" Value="CDISC01.100014"/>
<ItemData ItemOID="IT.SUPPAE.IDVAR" Value="AESEQ"/>
<ItemData ItemOID="IT.SUPPAE.IDVARVAL" Value="3"/>
<ItemData ItemOID="IT.SUPPAE.QNAM" Value="HLT"/>
<ItemData ItemOID="IT.SUPPAE.QLABEL" Value="Higher Level Term"/>
<ItemData ItemOID="IT.SUPPAE.QVAL" Value="Headaches NEC"/>
<ItemData ItemOID="IT.SUPPAE.QORIG" Value="Assigned"/>
<ItemData ItemOID="IT.SUPPAE.QEVAL" Value="CLINICAL STUDY SPONSOR"/>
</ItemGroupData>
<ItemGroupData ItemGroupOID="IG.SUPPAE" data:ItemGroupDataSeq="24">
<ItemData ItemOID="IT.STUDYID" Value="CDISC01"/>
<ItemData ItemOID="IT.RDOMAIN" Value="AE"/>
<ItemData ItemOID="IT.USUBJID" Value="CDISC01.100014"/>
<ItemData ItemOID="IT.SUPPAE.IDVAR" Value="AESEQ"/>
<ItemData ItemOID="IT.SUPPAE.IDVARVAL" Value="3"/>
<ItemData ItemOID="IT.SUPPAE.QNAM" Value="LLT"/>
<ItemData ItemOID="IT.SUPPAE.QLABEL" Value="Lowest Level Term"/>
<ItemData ItemOID="IT.SUPPAE.QVAL" Value="Headache"/>
<ItemData ItemOID="IT.SUPPAE.QORIG" Value="Assigned"/>
<ItemData ItemOID="IT.SUPPAE.QEVAL" Value="CLINICAL STUDY SPONSOR"/>
</ItemGroupData>
<ItemGroupData ItemGroupOID="IG.SUPPAE" data:ItemGroupDataSeq="25">
<ItemData ItemOID="IT.STUDYID" Value="CDISC01"/>
<ItemData ItemOID="IT.RDOMAIN" Value="AE"/>
<ItemData ItemOID="IT.USUBJID" Value="CDISC01.100014"/>
<ItemData ItemOID="IT.SUPPAE.IDVAR" Value="AESEQ"/>
<ItemData ItemOID="IT.SUPPAE.IDVARVAL" Value="4"/>
<ItemData ItemOID="IT.SUPPAE.QNAM" Value="AETRTEM"/>
<ItemData ItemOID="IT.SUPPAE.QLABEL" Value="Treatment Emergent Flag"/>
<ItemData ItemOID="IT.SUPPAE.QVAL" Value="Y"/>
<ItemData ItemOID="IT.SUPPAE.QORIG" Value="Derived"/>
</ItemGroupData>
<ItemGroupData ItemGroupOID="IG.SUPPAE" data:ItemGroupDataSeq="26">
<ItemData ItemOID="IT.STUDYID" Value="CDISC01"/>
<ItemData ItemOID="IT.RDOMAIN" Value="AE"/>
<ItemData ItemOID="IT.USUBJID" Value="CDISC01.100014"/>
<ItemData ItemOID="IT.SUPPAE.IDVAR" Value="AESEQ"/>
<ItemData ItemOID="IT.SUPPAE.IDVARVAL" Value="4"/>
<ItemData ItemOID="IT.SUPPAE.QNAM" Value="HLGT"/>
<ItemData ItemOID="IT.SUPPAE.QLABEL" Value="Higher Level Group Term"/>
<ItemData ItemOID="IT.SUPPAE.QVAL" Value="Gastrointestinal signs and symptoms"/>
<ItemData ItemOID="IT.SUPPAE.QORIG" Value="Assigned"/>
<ItemData ItemOID="IT.SUPPAE.QEVAL" Value="CLINICAL STUDY SPONSOR"/>
</ItemGroupData>
<ItemGroupData ItemGroupOID="IG.SUPPAE" data:ItemGroupDataSeq="27">
<ItemData ItemOID="IT.STUDYID" Value="CDISC01"/>
<ItemData ItemOID="IT.RDOMAIN" Value="AE"/>
<ItemData ItemOID="IT.USUBJID" Value="CDISC01.100014"/>
<ItemData ItemOID="IT.SUPPAE.IDVAR" Value="AESEQ"/>
<ItemData ItemOID="IT.SUPPAE.IDVARVAL" Value="4"/>
<ItemData ItemOID="IT.SUPPAE.QNAM" Value="HLT"/>
<ItemData ItemOID="IT.SUPPAE.QLABEL" Value="Higher Level Term"/>
<ItemData ItemOID="IT.SUPPAE.QVAL" Value="Nausea and vomiting symptoms"/>
<ItemData ItemOID="IT.SUPPAE.QORIG" Value="Assigned"/>
<ItemData ItemOID="IT.SUPPAE.QEVAL" Value="CLINICAL STUDY SPONSOR"/>
</ItemGroupData>
<ItemGroupData ItemGroupOID="IG.SUPPAE" data:ItemGroupDataSeq="28">
<ItemData ItemOID="IT.STUDYID" Value="CDISC01"/>
<ItemData ItemOID="IT.RDOMAIN" Value="AE"/>
<ItemData ItemOID="IT.USUBJID" Value="CDISC01.100014"/>
<ItemData ItemOID="IT.SUPPAE.IDVAR" Value="AESEQ"/>
<ItemData ItemOID="IT.SUPPAE.IDVARVAL" Value="4"/>
<ItemData ItemOID="IT.SUPPAE.QNAM" Value="LLT"/>
<ItemData ItemOID="IT.SUPPAE.QLABEL" Value="Lowest Level Term"/>
<ItemData ItemOID="IT.SUPPAE.QVAL" Value="Vomiting"/>
<ItemData ItemOID="IT.SUPPAE.QORIG" Value="Assigned"/>
<ItemData ItemOID="IT.SUPPAE.QEVAL" Value="CLINICAL STUDY SPONSOR"/>
</ItemGroupData>
<ItemGroupData ItemGroupOID="IG.SUPPAE" data:ItemGroupDataSeq="29">
<ItemData ItemOID="IT.STUDYID" Value="CDISC01"/>
<ItemData ItemOID="IT.RDOMAIN" Value="AE"/>
<ItemData ItemOID="IT.USUBJID" Value="CDISC01.100014"/>
<ItemData ItemOID="IT.SUPPAE.IDVAR" Value="AESEQ"/>
<ItemData ItemOID="IT.SUPPAE.IDVARVAL" Value="5"/>
<ItemData ItemOID="IT.SUPPAE.QNAM" Value="HLGT"/>
<ItemData ItemOID="IT.SUPPAE.QLABEL" Value="Higher Level Group Term"/>
<ItemData ItemOID="IT.SUPPAE.QVAL" Value="Gastrointestinal signs and symptoms"/>
<ItemData ItemOID="IT.SUPPAE.QORIG" Value="Assigned"/>
<ItemData ItemOID="IT.SUPPAE.QEVAL" Value="CLINICAL STUDY SPONSOR"/>
</ItemGroupData>
<ItemGroupData ItemGroupOID="IG.SUPPAE" data:ItemGroupDataSeq="30">
<ItemData ItemOID="IT.STUDYID" Value="CDISC01"/>
<ItemData ItemOID="IT.RDOMAIN" Value="AE"/>
<ItemData ItemOID="IT.USUBJID" Value="CDISC01.100014"/>
<ItemData ItemOID="IT.SUPPAE.IDVAR" Value="AESEQ"/>
<ItemData ItemOID="IT.SUPPAE.IDVARVAL" Value="5"/>
<ItemData ItemOID="IT.SUPPAE.QNAM" Value="HLT"/>
<ItemData ItemOID="IT.SUPPAE.QLABEL" Value="Higher Level Term"/>
<ItemData ItemOID="IT.SUPPAE.QVAL" Value="Nausea and vomiting symptoms"/>
<ItemData ItemOID="IT.SUPPAE.QORIG" Value="Assigned"/>
<ItemData ItemOID="IT.SUPPAE.QEVAL" Value="CLINICAL STUDY SPONSOR"/>
</ItemGroupData>
<ItemGroupData ItemGroupOID="IG.SUPPAE" data:ItemGroupDataSeq="31">
<ItemData ItemOID="IT.STUDYID" Value="CDISC01"/>
<ItemData ItemOID="IT.RDOMAIN" Value="AE"/>
<ItemData ItemOID="IT.USUBJID" Value="CDISC01.100014"/>
<ItemData ItemOID="IT.SUPPAE.IDVAR" Value="AESEQ"/>
<ItemData ItemOID="IT.SUPPAE.IDVARVAL" Value="5"/>
<ItemData ItemOID="IT.SUPPAE.QNAM" Value="LLT"/>
<ItemData ItemOID="IT.SUPPAE.QLABEL" Value="Lowest Level Term"/>
<ItemData ItemOID="IT.SUPPAE.QVAL" Value="Vomiting"/>
<ItemData ItemOID="IT.SUPPAE.QORIG" Value="Assigned"/>
<ItemData ItemOID="IT.SUPPAE.QEVAL" Value="CLINICAL STUDY SPONSOR"/>
</ItemGroupData>
<ItemGroupData ItemGroupOID="IG.SUPPAE" data:ItemGroupDataSeq="32">
<ItemData ItemOID="IT.STUDYID" Value="CDISC01"/>
<ItemData ItemOID="IT.RDOMAIN" Value="AE"/>
<ItemData ItemOID="IT.USUBJID" Value="CDISC01.200001"/>
<ItemData ItemOID="IT.SUPPAE.IDVAR" Value="AESEQ"/>
<ItemData ItemOID="IT.SUPPAE.IDVARVAL" Value="1"/>
<ItemData ItemOID="IT.SUPPAE.QNAM" Value="AETRTEM"/>
<ItemData ItemOID="IT.SUPPAE.QLABEL" Value="Treatment Emergent Flag"/>
<ItemData ItemOID="IT.SUPPAE.QVAL" Value="Y"/>
<ItemData ItemOID="IT.SUPPAE.QORIG" Value="Derived"/>
</ItemGroupData>
<ItemGroupData ItemGroupOID="IG.SUPPAE" data:ItemGroupDataSeq="33">
<ItemData ItemOID="IT.STUDYID" Value="CDISC01"/>
<ItemData ItemOID="IT.RDOMAIN" Value="AE"/>
<ItemData ItemOID="IT.USUBJID" Value="CDISC01.200001"/>
<ItemData ItemOID="IT.SUPPAE.IDVAR" Value="AESEQ"/>
<ItemData ItemOID="IT.SUPPAE.IDVARVAL" Value="1"/>
<ItemData ItemOID="IT.SUPPAE.QNAM" Value="HLGT"/>
<ItemData ItemOID="IT.SUPPAE.QLABEL" Value="Higher Level Group Term"/>
<ItemData ItemOID="IT.SUPPAE.QVAL" Value="Anxiety disorders and symptoms"/>
<ItemData ItemOID="IT.SUPPAE.QORIG" Value="Assigned"/>
<ItemData ItemOID="IT.SUPPAE.QEVAL" Value="CLINICAL STUDY SPONSOR"/>
</ItemGroupData>
<ItemGroupData ItemGroupOID="IG.SUPPAE" data:ItemGroupDataSeq="34">
<ItemData ItemOID="IT.STUDYID" Value="CDISC01"/>
<ItemData ItemOID="IT.RDOMAIN" Value="AE"/>
<ItemData ItemOID="IT.USUBJID" Value="CDISC01.200001"/>
<ItemData ItemOID="IT.SUPPAE.IDVAR" Value="AESEQ"/>
<ItemData ItemOID="IT.SUPPAE.IDVARVAL" Value="1"/>
<ItemData ItemOID="IT.SUPPAE.QNAM" Value="HLT"/>
<ItemData ItemOID="IT.SUPPAE.QLABEL" Value="Higher Level Term"/>
<ItemData ItemOID="IT.SUPPAE.QVAL" Value="Anxiety symptoms"/>
<ItemData ItemOID="IT.SUPPAE.QORIG" Value="Assigned"/>
<ItemData ItemOID="IT.SUPPAE.QEVAL" Value="CLINICAL STUDY SPONSOR"/>
</ItemGroupData>
<ItemGroupData ItemGroupOID="IG.SUPPAE" data:ItemGroupDataSeq="35">
<ItemData ItemOID="IT.STUDYID" Value="CDISC01"/>
<ItemData ItemOID="IT.RDOMAIN" Value="AE"/>
<ItemData ItemOID="IT.USUBJID" Value="CDISC01.200001"/>
<ItemData ItemOID="IT.SUPPAE.IDVAR" Value="AESEQ"/>
<ItemData ItemOID="IT.SUPPAE.IDVARVAL" Value="1"/>
<ItemData ItemOID="IT.SUPPAE.QNAM" Value="LLT"/>
<ItemData ItemOID="IT.SUPPAE.QLABEL" Value="Lowest Level Term"/>
<ItemData ItemOID="IT.SUPPAE.QVAL" Value="Anxiety"/>
<ItemData ItemOID="IT.SUPPAE.QORIG" Value="Assigned"/>
<ItemData ItemOID="IT.SUPPAE.QEVAL" Value="CLINICAL STUDY SPONSOR"/>
</ItemGroupData>
<ItemGroupData ItemGroupOID="IG.SUPPAE" data:ItemGroupDataSeq="36">
<ItemData ItemOID="IT.STUDYID" Value="CDISC01"/>
<ItemData ItemOID="IT.RDOMAIN" Value="AE"/>
<ItemData ItemOID="IT.USUBJID" Value="CDISC01.200001"/>
<ItemData ItemOID="IT.SUPPAE.IDVAR" Value="AESEQ"/>
<ItemData ItemOID="IT.SUPPAE.IDVARVAL" Value="2"/>
<ItemData ItemOID="IT.SUPPAE.QNAM" Value="AETRTEM"/>
<ItemData ItemOID="IT.SUPPAE.QLABEL" Value="Treatment Emergent Flag"/>
<ItemData ItemOID="IT.SUPPAE.QVAL" Value="Y"/>
<ItemData ItemOID="IT.SUPPAE.QORIG" Value="Derived"/>
</ItemGroupData>
<ItemGroupData ItemGroupOID="IG.SUPPAE" data:ItemGroupDataSeq="37">
<ItemData ItemOID="IT.STUDYID" Value="CDISC01"/>
<ItemData ItemOID="IT.RDOMAIN" Value="AE"/>
<ItemData ItemOID="IT.USUBJID" Value="CDISC01.200001"/>
<ItemData ItemOID="IT.SUPPAE.IDVAR" Value="AESEQ"/>
<ItemData ItemOID="IT.SUPPAE.IDVARVAL" Value="2"/>
<ItemData ItemOID="IT.SUPPAE.QNAM" Value="HLGT"/>
<ItemData ItemOID="IT.SUPPAE.QLABEL" Value="Higher Level Group Term"/>
<ItemData ItemOID="IT.SUPPAE.QVAL" Value="Joint disorders"/>
<ItemData ItemOID="IT.SUPPAE.QORIG" Value="Assigned"/>
<ItemData ItemOID="IT.SUPPAE.QEVAL" Value="CLINICAL STUDY SPONSOR"/>
</ItemGroupData>
<ItemGroupData ItemGroupOID="IG.SUPPAE" data:ItemGroupDataSeq="38">
<ItemData ItemOID="IT.STUDYID" Value="CDISC01"/>
<ItemData ItemOID="IT.RDOMAIN" Value="AE"/>
<ItemData ItemOID="IT.USUBJID" Value="CDISC01.200001"/>
<ItemData ItemOID="IT.SUPPAE.IDVAR" Value="AESEQ"/>
<ItemData ItemOID="IT.SUPPAE.IDVARVAL" Value="2"/>
<ItemData ItemOID="IT.SUPPAE.QNAM" Value="HLT"/>
<ItemData ItemOID="IT.SUPPAE.QLABEL" Value="Higher Level Term"/>
<ItemData ItemOID="IT.SUPPAE.QVAL" Value="Joint related signs and symptoms"/>
<ItemData ItemOID="IT.SUPPAE.QORIG" Value="Assigned"/>
<ItemData ItemOID="IT.SUPPAE.QEVAL" Value="CLINICAL STUDY SPONSOR"/>
</ItemGroupData>
<ItemGroupData ItemGroupOID="IG.SUPPAE" data:ItemGroupDataSeq="39">
<ItemData ItemOID="IT.STUDYID" Value="CDISC01"/>
<ItemData ItemOID="IT.RDOMAIN" Value="AE"/>
<ItemData ItemOID="IT.USUBJID" Value="CDISC01.200001"/>
<ItemData ItemOID="IT.SUPPAE.IDVAR" Value="AESEQ"/>
<ItemData ItemOID="IT.SUPPAE.IDVARVAL" Value="2"/>
<ItemData ItemOID="IT.SUPPAE.QNAM" Value="LLT"/>
<ItemData ItemOID="IT.SUPPAE.QLABEL" Value="Lowest Level Term"/>
<ItemData ItemOID="IT.SUPPAE.QVAL" Value="Knee pain"/>
<ItemData ItemOID="IT.SUPPAE.QORIG" Value="Assigned"/>
<ItemData ItemOID="IT.SUPPAE.QEVAL" Value="CLINICAL STUDY SPONSOR"/>
</ItemGroupData>
<ItemGroupData ItemGroupOID="IG.SUPPAE" data:ItemGroupDataSeq="40">
<ItemData ItemOID="IT.STUDYID" Value="CDISC01"/>
<ItemData ItemOID="IT.RDOMAIN" Value="AE"/>
<ItemData ItemOID="IT.USUBJID" Value="CDISC01.200001"/>
<ItemData ItemOID="IT.SUPPAE.IDVAR" Value="AESEQ"/>
<ItemData ItemOID="IT.SUPPAE.IDVARVAL" Value="3"/>
<ItemData ItemOID="IT.SUPPAE.QNAM" Value="AETRTEM"/>
<ItemData ItemOID="IT.SUPPAE.QLABEL" Value="Treatment Emergent Flag"/>
<ItemData ItemOID="IT.SUPPAE.QVAL" Value="Y"/>
<ItemData ItemOID="IT.SUPPAE.QORIG" Value="Derived"/>
</ItemGroupData>
<ItemGroupData ItemGroupOID="IG.SUPPAE" data:ItemGroupDataSeq="41">
<ItemData ItemOID="IT.STUDYID" Value="CDISC01"/>
<ItemData ItemOID="IT.RDOMAIN" Value="AE"/>
<ItemData ItemOID="IT.USUBJID" Value="CDISC01.200001"/>
<ItemData ItemOID="IT.SUPPAE.IDVAR" Value="AESEQ"/>
<ItemData ItemOID="IT.SUPPAE.IDVARVAL" Value="3"/>
<ItemData ItemOID="IT.SUPPAE.QNAM" Value="HLGT"/>
<ItemData ItemOID="IT.SUPPAE.QLABEL" Value="Higher Level Group Term"/>
<ItemData ItemOID="IT.SUPPAE.QVAL" Value="Gastrointestinal motility and defaecation conditions"/>
<ItemData ItemOID="IT.SUPPAE.QORIG" Value="Assigned"/>
<ItemData ItemOID="IT.SUPPAE.QEVAL" Value="CLINICAL STUDY SPONSOR"/>
</ItemGroupData>
<ItemGroupData ItemGroupOID="IG.SUPPAE" data:ItemGroupDataSeq="42">
<ItemData ItemOID="IT.STUDYID" Value="CDISC01"/>
<ItemData ItemOID="IT.RDOMAIN" Value="AE"/>
<ItemData ItemOID="IT.USUBJID" Value="CDISC01.200001"/>
<ItemData ItemOID="IT.SUPPAE.IDVAR" Value="AESEQ"/>
<ItemData ItemOID="IT.SUPPAE.IDVARVAL" Value="3"/>
<ItemData ItemOID="IT.SUPPAE.QNAM" Value="HLT"/>
<ItemData ItemOID="IT.SUPPAE.QLABEL" Value="Higher Level Term"/>
<ItemData ItemOID="IT.SUPPAE.QVAL" Value="Gastrointestinal atonic and hypomotility disorders NEC"/>
<ItemData ItemOID="IT.SUPPAE.QORIG" Value="Assigned"/>
<ItemData ItemOID="IT.SUPPAE.QEVAL" Value="CLINICAL STUDY SPONSOR"/>
</ItemGroupData>
<ItemGroupData ItemGroupOID="IG.SUPPAE" data:ItemGroupDataSeq="43">
<ItemData ItemOID="IT.STUDYID" Value="CDISC01"/>
<ItemData ItemOID="IT.RDOMAIN" Value="AE"/>
<ItemData ItemOID="IT.USUBJID" Value="CDISC01.200001"/>
<ItemData ItemOID="IT.SUPPAE.IDVAR" Value="AESEQ"/>
<ItemData ItemOID="IT.SUPPAE.IDVARVAL" Value="3"/>
<ItemData ItemOID="IT.SUPPAE.QNAM" Value="LLT"/>
<ItemData ItemOID="IT.SUPPAE.QLABEL" Value="Lowest Level Term"/>
<ItemData ItemOID="IT.SUPPAE.QVAL" Value="Constipation"/>
<ItemData ItemOID="IT.SUPPAE.QORIG" Value="Assigned"/>
<ItemData ItemOID="IT.SUPPAE.QEVAL" Value="CLINICAL STUDY SPONSOR"/>
</ItemGroupData>
<ItemGroupData ItemGroupOID="IG.SUPPAE" data:ItemGroupDataSeq="44">
<ItemData ItemOID="IT.STUDYID" Value="CDISC01"/>
<ItemData ItemOID="IT.RDOMAIN" Value="AE"/>
<ItemData ItemOID="IT.USUBJID" Value="CDISC01.200001"/>
<ItemData ItemOID="IT.SUPPAE.IDVAR" Value="AESEQ"/>
<ItemData ItemOID="IT.SUPPAE.IDVARVAL" Value="4"/>
<ItemData ItemOID="IT.SUPPAE.QNAM" Value="AETRTEM"/>
<ItemData ItemOID="IT.SUPPAE.QLABEL" Value="Treatment Emergent Flag"/>
<ItemData ItemOID="IT.SUPPAE.QVAL" Value="Y"/>
<ItemData ItemOID="IT.SUPPAE.QORIG" Value="Derived"/>
</ItemGroupData>
<ItemGroupData ItemGroupOID="IG.SUPPAE" data:ItemGroupDataSeq="45">
<ItemData ItemOID="IT.STUDYID" Value="CDISC01"/>
<ItemData ItemOID="IT.RDOMAIN" Value="AE"/>
<ItemData ItemOID="IT.USUBJID" Value="CDISC01.200001"/>
<ItemData ItemOID="IT.SUPPAE.IDVAR" Value="AESEQ"/>
<ItemData ItemOID="IT.SUPPAE.IDVARVAL" Value="4"/>
<ItemData ItemOID="IT.SUPPAE.QNAM" Value="HLGT"/>
<ItemData ItemOID="IT.SUPPAE.QLABEL" Value="Higher Level Group Term"/>
<ItemData ItemOID="IT.SUPPAE.QVAL" Value="General system disorders NEC"/>
<ItemData ItemOID="IT.SUPPAE.QORIG" Value="Assigned"/>
<ItemData ItemOID="IT.SUPPAE.QEVAL" Value="CLINICAL STUDY SPONSOR"/>
</ItemGroupData>
<ItemGroupData ItemGroupOID="IG.SUPPAE" data:ItemGroupDataSeq="46">
<ItemData ItemOID="IT.STUDYID" Value="CDISC01"/>
<ItemData ItemOID="IT.RDOMAIN" Value="AE"/>
<ItemData ItemOID="IT.USUBJID" Value="CDISC01.200001"/>
<ItemData ItemOID="IT.SUPPAE.IDVAR" Value="AESEQ"/>
<ItemData ItemOID="IT.SUPPAE.IDVARVAL" Value="4"/>
<ItemData ItemOID="IT.SUPPAE.QNAM" Value="HLT"/>
<ItemData ItemOID="IT.SUPPAE.QLABEL" Value="Higher Level Term"/>
<ItemData ItemOID="IT.SUPPAE.QVAL" Value="Asthenic conditions"/>
<ItemData ItemOID="IT.SUPPAE.QORIG" Value="Assigned"/>
<ItemData ItemOID="IT.SUPPAE.QEVAL" Value="CLINICAL STUDY SPONSOR"/>
</ItemGroupData>
<ItemGroupData ItemGroupOID="IG.SUPPAE" data:ItemGroupDataSeq="47">
<ItemData ItemOID="IT.STUDYID" Value="CDISC01"/>
<ItemData ItemOID="IT.RDOMAIN" Value="AE"/>
<ItemData ItemOID="IT.USUBJID" Value="CDISC01.200001"/>
<ItemData ItemOID="IT.SUPPAE.IDVAR" Value="AESEQ"/>
<ItemData ItemOID="IT.SUPPAE.IDVARVAL" Value="4"/>
<ItemData ItemOID="IT.SUPPAE.QNAM" Value="LLT"/>
<ItemData ItemOID="IT.SUPPAE.QLABEL" Value="Lowest Level Term"/>
<ItemData ItemOID="IT.SUPPAE.QVAL" Value="Fatigue"/>
<ItemData ItemOID="IT.SUPPAE.QORIG" Value="Assigned"/>
<ItemData ItemOID="IT.SUPPAE.QEVAL" Value="CLINICAL STUDY SPONSOR"/>
</ItemGroupData>
<ItemGroupData ItemGroupOID="IG.SUPPAE" data:ItemGroupDataSeq="48">
<ItemData ItemOID="IT.STUDYID" Value="CDISC01"/>
<ItemData ItemOID="IT.RDOMAIN" Value="AE"/>
<ItemData ItemOID="IT.USUBJID" Value="CDISC01.200001"/>
<ItemData ItemOID="IT.SUPPAE.IDVAR" Value="AESEQ"/>
<ItemData ItemOID="IT.SUPPAE.IDVARVAL" Value="5"/>
<ItemData ItemOID="IT.SUPPAE.QNAM" Value="AETRTEM"/>
<ItemData ItemOID="IT.SUPPAE.QLABEL" Value="Treatment Emergent Flag"/>
<ItemData ItemOID="IT.SUPPAE.QVAL" Value="Y"/>
<ItemData ItemOID="IT.SUPPAE.QORIG" Value="Derived"/>
</ItemGroupData>
<ItemGroupData ItemGroupOID="IG.SUPPAE" data:ItemGroupDataSeq="49">
<ItemData ItemOID="IT.STUDYID" Value="CDISC01"/>
<ItemData ItemOID="IT.RDOMAIN" Value="AE"/>
<ItemData ItemOID="IT.USUBJID" Value="CDISC01.200001"/>
<ItemData ItemOID="IT.SUPPAE.IDVAR" Value="AESEQ"/>
<ItemData ItemOID="IT.SUPPAE.IDVARVAL" Value="5"/>
<ItemData ItemOID="IT.SUPPAE.QNAM" Value="HLGT"/>
<ItemData ItemOID="IT.SUPPAE.QLABEL" Value="Higher Level Group Term"/>
<ItemData ItemOID="IT.SUPPAE.QVAL" Value="Gastrointestinal signs and symptoms"/>
<ItemData ItemOID="IT.SUPPAE.QORIG" Value="Assigned"/>
<ItemData ItemOID="IT.SUPPAE.QEVAL" Value="CLINICAL STUDY SPONSOR"/>
</ItemGroupData>
<ItemGroupData ItemGroupOID="IG.SUPPAE" data:ItemGroupDataSeq="50">
<ItemData ItemOID="IT.STUDYID" Value="CDISC01"/>
<ItemData ItemOID="IT.RDOMAIN" Value="AE"/>
<ItemData ItemOID="IT.USUBJID" Value="CDISC01.200001"/>
<ItemData ItemOID="IT.SUPPAE.IDVAR" Value="AESEQ"/>
<ItemData ItemOID="IT.SUPPAE.IDVARVAL" Value="5"/>
<ItemData ItemOID="IT.SUPPAE.QNAM" Value="HLT"/>
<ItemData ItemOID="IT.SUPPAE.QLABEL" Value="Higher Level Term"/>
<ItemData ItemOID="IT.SUPPAE.QVAL" Value="Nausea and vomiting symptoms"/>
<ItemData ItemOID="IT.SUPPAE.QORIG" Value="Assigned"/>
<ItemData ItemOID="IT.SUPPAE.QEVAL" Value="CLINICAL STUDY SPONSOR"/>
</ItemGroupData>
<ItemGroupData ItemGroupOID="IG.SUPPAE" data:ItemGroupDataSeq="51">
<ItemData ItemOID="IT.STUDYID" Value="CDISC01"/>
<ItemData ItemOID="IT.RDOMAIN" Value="AE"/>
<ItemData ItemOID="IT.USUBJID" Value="CDISC01.200001"/>
<ItemData ItemOID="IT.SUPPAE.IDVAR" Value="AESEQ"/>
<ItemData ItemOID="IT.SUPPAE.IDVARVAL" Value="5"/>
<ItemData ItemOID="IT.SUPPAE.QNAM" Value="LLT"/>
<ItemData ItemOID="IT.SUPPAE.QLABEL" Value="Lowest Level Term"/>
<ItemData ItemOID="IT.SUPPAE.QVAL" Value="Nausea"/>
<ItemData ItemOID="IT.SUPPAE.QORIG" Value="Assigned"/>
<ItemData ItemOID="IT.SUPPAE.QEVAL" Value="CLINICAL STUDY SPONSOR"/>
</ItemGroupData>
<ItemGroupData ItemGroupOID="IG.SUPPAE" data:ItemGroupDataSeq="52">
<ItemData ItemOID="IT.STUDYID" Value="CDISC01"/>
<ItemData ItemOID="IT.RDOMAIN" Value="AE"/>
<ItemData ItemOID="IT.USUBJID" Value="CDISC01.200002"/>
<ItemData ItemOID="IT.SUPPAE.IDVAR" Value="AESEQ"/>
<ItemData ItemOID="IT.SUPPAE.IDVARVAL" Value="1"/>
<ItemData ItemOID="IT.SUPPAE.QNAM" Value="AETRTEM"/>
<ItemData ItemOID="IT.SUPPAE.QLABEL" Value="Treatment Emergent Flag"/>
<ItemData ItemOID="IT.SUPPAE.QVAL" Value="Y"/>
<ItemData ItemOID="IT.SUPPAE.QORIG" Value="Derived"/>
</ItemGroupData>
<ItemGroupData ItemGroupOID="IG.SUPPAE" data:ItemGroupDataSeq="53">
<ItemData ItemOID="IT.STUDYID" Value="CDISC01"/>
<ItemData ItemOID="IT.RDOMAIN" Value="AE"/>
<ItemData ItemOID="IT.USUBJID" Value="CDISC01.200002"/>
<ItemData ItemOID="IT.SUPPAE.IDVAR" Value="AESEQ"/>
<ItemData ItemOID="IT.SUPPAE.IDVARVAL" Value="1"/>
<ItemData ItemOID="IT.SUPPAE.QNAM" Value="HLGT"/>
<ItemData ItemOID="IT.SUPPAE.QLABEL" Value="Higher Level Group Term"/>
<ItemData ItemOID="IT.SUPPAE.QVAL" Value="Neurological disorders NEC"/>
<ItemData ItemOID="IT.SUPPAE.QORIG" Value="Assigned"/>
<ItemData ItemOID="IT.SUPPAE.QEVAL" Value="CLINICAL STUDY SPONSOR"/>
</ItemGroupData>
<ItemGroupData ItemGroupOID="IG.SUPPAE" data:ItemGroupDataSeq="54">
<ItemData ItemOID="IT.STUDYID" Value="CDISC01"/>
<ItemData ItemOID="IT.RDOMAIN" Value="AE"/>
<ItemData ItemOID="IT.USUBJID" Value="CDISC01.200002"/>
<ItemData ItemOID="IT.SUPPAE.IDVAR" Value="AESEQ"/>
<ItemData ItemOID="IT.SUPPAE.IDVARVAL" Value="1"/>
<ItemData ItemOID="IT.SUPPAE.QNAM" Value="HLT"/>
<ItemData ItemOID="IT.SUPPAE.QLABEL" Value="Higher Level Term"/>
<ItemData ItemOID="IT.SUPPAE.QVAL" Value="Neurological signs and symptoms NEC"/>
<ItemData ItemOID="IT.SUPPAE.QORIG" Value="Assigned"/>
<ItemData ItemOID="IT.SUPPAE.QEVAL" Value="CLINICAL STUDY SPONSOR"/>
</ItemGroupData>
<ItemGroupData ItemGroupOID="IG.SUPPAE" data:ItemGroupDataSeq="55">
<ItemData ItemOID="IT.STUDYID" Value="CDISC01"/>
<ItemData ItemOID="IT.RDOMAIN" Value="AE"/>
<ItemData ItemOID="IT.USUBJID" Value="CDISC01.200002"/>
<ItemData ItemOID="IT.SUPPAE.IDVAR" Value="AESEQ"/>
<ItemData ItemOID="IT.SUPPAE.IDVARVAL" Value="1"/>
<ItemData ItemOID="IT.SUPPAE.QNAM" Value="LLT"/>
<ItemData ItemOID="IT.SUPPAE.QLABEL" Value="Lowest Level Term"/>
<ItemData ItemOID="IT.SUPPAE.QVAL" Value="Lightheadedness"/>
<ItemData ItemOID="IT.SUPPAE.QORIG" Value="Assigned"/>
<ItemData ItemOID="IT.SUPPAE.QEVAL" Value="CLINICAL STUDY SPONSOR"/>
</ItemGroupData>
<ItemGroupData ItemGroupOID="IG.SUPPAE" data:ItemGroupDataSeq="56">
<ItemData ItemOID="IT.STUDYID" Value="CDISC01"/>
<ItemData ItemOID="IT.RDOMAIN" Value="AE"/>
<ItemData ItemOID="IT.USUBJID" Value="CDISC01.200002"/>
<ItemData ItemOID="IT.SUPPAE.IDVAR" Value="AESEQ"/>
<ItemData ItemOID="IT.SUPPAE.IDVARVAL" Value="2"/>
<ItemData ItemOID="IT.SUPPAE.QNAM" Value="AETRTEM"/>
<ItemData ItemOID="IT.SUPPAE.QLABEL" Value="Treatment Emergent Flag"/>
<ItemData ItemOID="IT.SUPPAE.QVAL" Value="Y"/>
<ItemData ItemOID="IT.SUPPAE.QORIG" Value="Derived"/>
</ItemGroupData>
<ItemGroupData ItemGroupOID="IG.SUPPAE" data:ItemGroupDataSeq="57">
<ItemData ItemOID="IT.STUDYID" Value="CDISC01"/>
<ItemData ItemOID="IT.RDOMAIN" Value="AE"/>
<ItemData ItemOID="IT.USUBJID" Value="CDISC01.200002"/>
<ItemData ItemOID="IT.SUPPAE.IDVAR" Value="AESEQ"/>
<ItemData ItemOID="IT.SUPPAE.IDVARVAL" Value="2"/>
<ItemData ItemOID="IT.SUPPAE.QNAM" Value="HLGT"/>
<ItemData ItemOID="IT.SUPPAE.QLABEL" Value="Higher Level Group Term"/>
<ItemData ItemOID="IT.SUPPAE.QVAL" Value="Muscle disorders"/>
<ItemData ItemOID="IT.SUPPAE.QORIG" Value="Assigned"/>
<ItemData ItemOID="IT.SUPPAE.QEVAL" Value="CLINICAL STUDY SPONSOR"/>
</ItemGroupData>
<ItemGroupData ItemGroupOID="IG.SUPPAE" data:ItemGroupDataSeq="58">
<ItemData ItemOID="IT.STUDYID" Value="CDISC01"/>
<ItemData ItemOID="IT.RDOMAIN" Value="AE"/>
<ItemData ItemOID="IT.USUBJID" Value="CDISC01.200002"/>
<ItemData ItemOID="IT.SUPPAE.IDVAR" Value="AESEQ"/>
<ItemData ItemOID="IT.SUPPAE.IDVARVAL" Value="2"/>
<ItemData ItemOID="IT.SUPPAE.QNAM" Value="HLT"/>
<ItemData ItemOID="IT.SUPPAE.QLABEL" Value="Higher Level Term"/>
<ItemData ItemOID="IT.SUPPAE.QVAL" Value="Muscle related signs and symptoms NEC"/>
<ItemData ItemOID="IT.SUPPAE.QORIG" Value="Assigned"/>
<ItemData ItemOID="IT.SUPPAE.QEVAL" Value="CLINICAL STUDY SPONSOR"/>
</ItemGroupData>
<ItemGroupData ItemGroupOID="IG.SUPPAE" data:ItemGroupDataSeq="59">
<ItemData ItemOID="IT.STUDYID" Value="CDISC01"/>
<ItemData ItemOID="IT.RDOMAIN" Value="AE"/>
<ItemData ItemOID="IT.USUBJID" Value="CDISC01.200002"/>
<ItemData ItemOID="IT.SUPPAE.IDVAR" Value="AESEQ"/>
<ItemData ItemOID="IT.SUPPAE.IDVARVAL" Value="2"/>
<ItemData ItemOID="IT.SUPPAE.QNAM" Value="LLT"/>
<ItemData ItemOID="IT.SUPPAE.QLABEL" Value="Lowest Level Term"/>
<ItemData ItemOID="IT.SUPPAE.QVAL" Value="Muscle spasms"/>
<ItemData ItemOID="IT.SUPPAE.QORIG" Value="Assigned"/>
<ItemData ItemOID="IT.SUPPAE.QEVAL" Value="CLINICAL STUDY SPONSOR"/>
</ItemGroupData>
<ItemGroupData ItemGroupOID="IG.SUPPAE" data:ItemGroupDataSeq="60">
<ItemData ItemOID="IT.STUDYID" Value="CDISC01"/>
<ItemData ItemOID="IT.RDOMAIN" Value="AE"/>
<ItemData ItemOID="IT.USUBJID" Value="CDISC01.200002"/>
<ItemData ItemOID="IT.SUPPAE.IDVAR" Value="AESEQ"/>
<ItemData ItemOID="IT.SUPPAE.IDVARVAL" Value="3"/>
<ItemData ItemOID="IT.SUPPAE.QNAM" Value="AETRTEM"/>
<ItemData ItemOID="IT.SUPPAE.QLABEL" Value="Treatment Emergent Flag"/>
<ItemData ItemOID="IT.SUPPAE.QVAL" Value="Y"/>
<ItemData ItemOID="IT.SUPPAE.QORIG" Value="Derived"/>
</ItemGroupData>
<ItemGroupData ItemGroupOID="IG.SUPPAE" data:ItemGroupDataSeq="61">
<ItemData ItemOID="IT.STUDYID" Value="CDISC01"/>
<ItemData ItemOID="IT.RDOMAIN" Value="AE"/>
<ItemData ItemOID="IT.USUBJID" Value="CDISC01.200002"/>
<ItemData ItemOID="IT.SUPPAE.IDVAR" Value="AESEQ"/>
<ItemData ItemOID="IT.SUPPAE.IDVARVAL" Value="3"/>
<ItemData ItemOID="IT.SUPPAE.QNAM" Value="HLGT"/>
<ItemData ItemOID="IT.SUPPAE.QLABEL" Value="Higher Level Group Term"/>
<ItemData ItemOID="IT.SUPPAE.QVAL" Value="Cardiac disorder signs and symptoms"/>
<ItemData ItemOID="IT.SUPPAE.QORIG" Value="Assigned"/>
<ItemData ItemOID="IT.SUPPAE.QEVAL" Value="CLINICAL STUDY SPONSOR"/>
</ItemGroupData>
<ItemGroupData ItemGroupOID="IG.SUPPAE" data:ItemGroupDataSeq="62">
<ItemData ItemOID="IT.STUDYID" Value="CDISC01"/>
<ItemData ItemOID="IT.RDOMAIN" Value="AE"/>
<ItemData ItemOID="IT.USUBJID" Value="CDISC01.200002"/>
<ItemData ItemOID="IT.SUPPAE.IDVAR" Value="AESEQ"/>
<ItemData ItemOID="IT.SUPPAE.IDVARVAL" Value="3"/>
<ItemData ItemOID="IT.SUPPAE.QNAM" Value="HLT"/>
<ItemData ItemOID="IT.SUPPAE.QLABEL" Value="Higher Level Term"/>
<ItemData ItemOID="IT.SUPPAE.QVAL" Value="Cardiac signs and symptoms NEC"/>
<ItemData ItemOID="IT.SUPPAE.QORIG" Value="Assigned"/>
<ItemData ItemOID="IT.SUPPAE.QEVAL" Value="CLINICAL STUDY SPONSOR"/>
</ItemGroupData>
<ItemGroupData ItemGroupOID="IG.SUPPAE" data:ItemGroupDataSeq="63">
<ItemData ItemOID="IT.STUDYID" Value="CDISC01"/>
<ItemData ItemOID="IT.RDOMAIN" Value="AE"/>
<ItemData ItemOID="IT.USUBJID" Value="CDISC01.200002"/>
<ItemData ItemOID="IT.SUPPAE.IDVAR" Value="AESEQ"/>
<ItemData ItemOID="IT.SUPPAE.IDVARVAL" Value="3"/>
<ItemData ItemOID="IT.SUPPAE.QNAM" Value="LLT"/>
<ItemData ItemOID="IT.SUPPAE.QLABEL" Value="Lowest Level Term"/>
<ItemData ItemOID="IT.SUPPAE.QVAL" Value="Palpitations"/>
<ItemData ItemOID="IT.SUPPAE.QORIG" Value="Assigned"/>
<ItemData ItemOID="IT.SUPPAE.QEVAL" Value="CLINICAL STUDY SPONSOR"/>
</ItemGroupData>
</ClinicalData>
</ODM>
