<?xml version="1.0" encoding="UTF-8"?>
<!-- Produced from SAS data using SAS Clinical Standards Toolkit -->
<ODM
xmlns="http://www.cdisc.org/ns/odm/v1.3"
xmlns:data="http://www.cdisc.org/ns/Dataset-XML/v1.0"
ODMVersion="1.3.2"
FileType="Snapshot"
FileOID="cdisc01.SUPPEG"
PriorFileOID="www.cdisc.org.Studycdisc01-Define-XML_2.0.0"
CreationDateTime="2014-10-29T11:15:07"
data:DatasetXMLVersion="1.0.0">
<ClinicalData StudyOID="cdisc01" MetaDataVersionOID="MDV.CDISC01.SDTMIG.3.1.2.SDTM.1.2">
<ItemGroupData ItemGroupOID="IG.SUPPEG" data:ItemGroupDataSeq="1">
<ItemData ItemOID="IT.STUDYID" Value="CDISC01"/>
<ItemData ItemOID="IT.RDOMAIN" Value="EG"/>
<ItemData ItemOID="IT.USUBJID" Value="CDISC01.100008"/>
<ItemData ItemOID="IT.SUPPEG.IDVAR" Value="EGSEQ"/>
<ItemData ItemOID="IT.SUPPEG.IDVARVAL" Value="1"/>
<ItemData ItemOID="IT.SUPPEG.QNAM" Value="EGCLSIG"/>
<ItemData ItemOID="IT.SUPPEG.QLABEL" Value="Clinically Significant"/>
<ItemData ItemOID="IT.SUPPEG.QVAL" Value="N"/>
<ItemData ItemOID="IT.SUPPEG.QORIG" Value="CRF"/>
<ItemData ItemOID="IT.SUPPEG.QEVAL" Value="INVESTIGATOR"/>
</ItemGroupData>
<ItemGroupData ItemGroupOID="IG.SUPPEG" data:ItemGroupDataSeq="2">
<ItemData ItemOID="IT.STUDYID" Value="CDISC01"/>
<ItemData ItemOID="IT.RDOMAIN" Value="EG"/>
<ItemData ItemOID="IT.USUBJID" Value="CDISC01.100008"/>
<ItemData ItemOID="IT.SUPPEG.IDVAR" Value="EGSEQ"/>
<ItemData ItemOID="IT.SUPPEG.IDVARVAL" Value="2"/>
<ItemData ItemOID="IT.SUPPEG.QNAM" Value="EGCLSIG"/>
<ItemData ItemOID="IT.SUPPEG.QLABEL" Value="Clinically Significant"/>
<ItemData ItemOID="IT.SUPPEG.QVAL" Value="N"/>
<ItemData ItemOID="IT.SUPPEG.QORIG" Value="CRF"/>
<ItemData ItemOID="IT.SUPPEG.QEVAL" Value="INVESTIGATOR"/>
</ItemGroupData>
<ItemGroupData ItemGroupOID="IG.SUPPEG" data:ItemGroupDataSeq="3">
<ItemData ItemOID="IT.STUDYID" Value="CDISC01"/>
<ItemData ItemOID="IT.RDOMAIN" Value="EG"/>
<ItemData ItemOID="IT.USUBJID" Value="CDISC01.100014"/>
<ItemData ItemOID="IT.SUPPEG.IDVAR" Value="EGSEQ"/>
<ItemData ItemOID="IT.SUPPEG.IDVARVAL" Value="1"/>
<ItemData ItemOID="IT.SUPPEG.QNAM" Value="EGCLSIG"/>
<ItemData ItemOID="IT.SUPPEG.QLABEL" Value="Clinically Significant"/>
<ItemData ItemOID="IT.SUPPEG.QVAL" Value="N"/>
<ItemData ItemOID="IT.SUPPEG.QORIG" Value="CRF"/>
<ItemData ItemOID="IT.SUPPEG.QEVAL" Value="INVESTIGATOR"/>
</ItemGroupData>
<ItemGroupData ItemGroupOID="IG.SUPPEG" data:ItemGroupDataSeq="4">
<ItemData ItemOID="IT.STUDYID" Value="CDISC01"/>
<ItemData ItemOID="IT.RDOMAIN" Value="EG"/>
<ItemData ItemOID="IT.USUBJID" Value="CDISC01.100014"/>
<ItemData ItemOID="IT.SUPPEG.IDVAR" Value="EGSEQ"/>
<ItemData ItemOID="IT.SUPPEG.IDVARVAL" Value="2"/>
<ItemData ItemOID="IT.SUPPEG.QNAM" Value="EGCLSIG"/>
<ItemData ItemOID="IT.SUPPEG.QLABEL" Value="Clinically Significant"/>
<ItemData ItemOID="IT.SUPPEG.QVAL" Value="N"/>
<ItemData ItemOID="IT.SUPPEG.QORIG" Value="CRF"/>
<ItemData ItemOID="IT.SUPPEG.QEVAL" Value="INVESTIGATOR"/>
</ItemGroupData>
<ItemGroupData ItemGroupOID="IG.SUPPEG" data:ItemGroupDataSeq="5">
<ItemData ItemOID="IT.STUDYID" Value="CDISC01"/>
<ItemData ItemOID="IT.RDOMAIN" Value="EG"/>
<ItemData ItemOID="IT.USUBJID" Value="CDISC01.200002"/>
<ItemData ItemOID="IT.SUPPEG.IDVAR" Value="EGSEQ"/>
<ItemData ItemOID="IT.SUPPEG.IDVARVAL" Value="1"/>
<ItemData ItemOID="IT.SUPPEG.QNAM" Value="EGCLSIG"/>
<ItemData ItemOID="IT.SUPPEG.QLABEL" Value="Clinically Significant"/>
<ItemData ItemOID="IT.SUPPEG.QVAL" Value="N"/>
<ItemData ItemOID="IT.SUPPEG.QORIG" Value="CRF"/>
<ItemData ItemOID="IT.SUPPEG.QEVAL" Value="INVESTIGATOR"/>
</ItemGroupData>
<ItemGroupData ItemGroupOID="IG.SUPPEG" data:ItemGroupDataSeq="6">
<ItemData ItemOID="IT.STUDYID" Value="CDISC01"/>
<ItemData ItemOID="IT.RDOMAIN" Value="EG"/>
<ItemData ItemOID="IT.USUBJID" Value="CDISC01.200002"/>
<ItemData ItemOID="IT.SUPPEG.IDVAR" Value="EGSEQ"/>
<ItemData ItemOID="IT.SUPPEG.IDVARVAL" Value="2"/>
<ItemData ItemOID="IT.SUPPEG.QNAM" Value="EGCLSIG"/>
<ItemData ItemOID="IT.SUPPEG.QLABEL" Value="Clinically Significant"/>
<ItemData ItemOID="IT.SUPPEG.QVAL" Value="N"/>
<ItemData ItemOID="IT.SUPPEG.QORIG" Value="CRF"/>
<ItemData ItemOID="IT.SUPPEG.QEVAL" Value="INVESTIGATOR"/>
</ItemGroupData>
</ClinicalData>
</ODM>
