<?xml version="1.0" encoding="UTF-8"?>
<!-- Produced from SAS data using SAS Clinical Standards Toolkit -->
<ODM
xmlns="http://www.cdisc.org/ns/odm/v1.3"
xmlns:data="http://www.cdisc.org/ns/Dataset-XML/v1.0"
ODMVersion="1.3.2"
FileType="Snapshot"
FileOID="cdisc01.SUPPQSCG"
PriorFileOID="www.cdisc.org.Studycdisc01-Define-XML_2.0.0"
CreationDateTime="2014-10-29T11:15:08"
data:DatasetXMLVersion="1.0.0">
<ClinicalData StudyOID="cdisc01" MetaDataVersionOID="MDV.CDISC01.SDTMIG.3.1.2.SDTM.1.2">
<ItemGroupData ItemGroupOID="IG.SUPPQSCG" data:ItemGroupDataSeq="1">
<ItemData ItemOID="IT.STUDYID" Value="CDISC01"/>
<ItemData ItemOID="IT.RDOMAIN" Value="QS"/>
<ItemData ItemOID="IT.USUBJID" Value="CDISC01.100008"/>
<ItemData ItemOID="IT.SUPPQS.IDVAR" Value="QSCAT"/>
<ItemData ItemOID="IT.SUPPQS.IDVARVAL" Value="CLINICAL GLOBAL IMPRESSIONS (CGI-I)"/>
<ItemData ItemOID="IT.SUPPQS.QNAM" Value="RTRINIT"/>
<ItemData ItemOID="IT.SUPPQS.QLABEL" Value="Rater Initials"/>
<ItemData ItemOID="IT.SUPPQS.QVAL" Value="JSR"/>
<ItemData ItemOID="IT.SUPPQS.QORIG" Value="CRF"/>
</ItemGroupData>
<ItemGroupData ItemGroupOID="IG.SUPPQSCG" data:ItemGroupDataSeq="2">
<ItemData ItemOID="IT.STUDYID" Value="CDISC01"/>
<ItemData ItemOID="IT.RDOMAIN" Value="QS"/>
<ItemData ItemOID="IT.USUBJID" Value="CDISC01.200001"/>
<ItemData ItemOID="IT.SUPPQS.IDVAR" Value="QSCAT"/>
<ItemData ItemOID="IT.SUPPQS.IDVARVAL" Value="CLINICAL GLOBAL IMPRESSIONS (CGI-I)"/>
<ItemData ItemOID="IT.SUPPQS.QNAM" Value="RTRINIT"/>
<ItemData ItemOID="IT.SUPPQS.QLABEL" Value="Rater Initials"/>
<ItemData ItemOID="IT.SUPPQS.QVAL" Value="TWL"/>
<ItemData ItemOID="IT.SUPPQS.QORIG" Value="CRF"/>
</ItemGroupData>
<ItemGroupData ItemGroupOID="IG.SUPPQSCG" data:ItemGroupDataSeq="3">
<ItemData ItemOID="IT.STUDYID" Value="CDISC01"/>
<ItemData ItemOID="IT.RDOMAIN" Value="QS"/>
<ItemData ItemOID="IT.USUBJID" Value="CDISC01.200002"/>
<ItemData ItemOID="IT.SUPPQS.IDVAR" Value="QSCAT"/>
<ItemData ItemOID="IT.SUPPQS.IDVARVAL" Value="CLINICAL GLOBAL IMPRESSIONS (CGI-I)"/>
<ItemData ItemOID="IT.SUPPQS.QNAM" Value="RTRINIT"/>
<ItemData ItemOID="IT.SUPPQS.QLABEL" Value="Rater Initials"/>
<ItemData ItemOID="IT.SUPPQS.QVAL" Value="BNJ"/>
<ItemData ItemOID="IT.SUPPQS.QORIG" Value="CRF"/>
</ItemGroupData>
</ClinicalData>
</ODM>
