<?xml version="1.0" encoding="UTF-8"?>
<!-- Produced from SAS data using SAS Clinical Standards Toolkit -->
<ODM
xmlns="http://www.cdisc.org/ns/odm/v1.3"
xmlns:data="http://www.cdisc.org/ns/Dataset-XML/v1.0"
ODMVersion="1.3.2"
FileType="Snapshot"
FileOID="cdisc01.VS"
PriorFileOID="www.cdisc.org.Studycdisc01-Define-XML_2.0.0"
CreationDateTime="2014-10-29T11:15:11"
data:DatasetXMLVersion="1.0.0">
<ClinicalData StudyOID="cdisc01" MetaDataVersionOID="MDV.CDISC01.SDTMIG.3.1.2.SDTM.1.2">
<ItemGroupData ItemGroupOID="IG.VS" data:ItemGroupDataSeq="1">
<ItemData ItemOID="IT.STUDYID" Value="CDISC01"/>
<ItemData ItemOID="IT.VS.DOMAIN" Value="VS"/>
<ItemData ItemOID="IT.USUBJID" Value="CDISC01.100008"/>
<ItemData ItemOID="IT.VS.VSSEQ" Value="1"/>
<ItemData ItemOID="IT.VS.VSTESTCD" Value="DIABP"/>
<ItemData ItemOID="IT.VS.VSTEST" Value="Diastolic Blood Pressure"/>
<ItemData ItemOID="IT.VS.VSPOS" Value="SITTING"/>
<ItemData ItemOID="IT.VS.VSORRES" Value="74"/>
<ItemData ItemOID="IT.VS.VSORRESU" Value="mmHg"/>
<ItemData ItemOID="IT.VS.VSSTRESC" Value="74"/>
<ItemData ItemOID="IT.VS.VSSTRESN" Value="74"/>
<ItemData ItemOID="IT.VS.VSSTRESU" Value="mmHg"/>
<ItemData ItemOID="IT.VS.VISITNUM" Value="1"/>
<ItemData ItemOID="IT.VS.VISIT" Value="SCREEN"/>
<ItemData ItemOID="IT.VS.VISITDY" Value="-13"/>
<ItemData ItemOID="IT.VS.VSDTC" Value="2003-04-15"/>
<ItemData ItemOID="IT.VS.VSDY" Value="-14"/>
</ItemGroupData>
<ItemGroupData ItemGroupOID="IG.VS" data:ItemGroupDataSeq="2">
<ItemData ItemOID="IT.STUDYID" Value="CDISC01"/>
<ItemData ItemOID="IT.VS.DOMAIN" Value="VS"/>
<ItemData ItemOID="IT.USUBJID" Value="CDISC01.100008"/>
<ItemData ItemOID="IT.VS.VSSEQ" Value="2"/>
<ItemData ItemOID="IT.VS.VSTESTCD" Value="DIABP"/>
<ItemData ItemOID="IT.VS.VSTEST" Value="Diastolic Blood Pressure"/>
<ItemData ItemOID="IT.VS.VSPOS" Value="SITTING"/>
<ItemData ItemOID="IT.VS.VSORRES" Value="88"/>
<ItemData ItemOID="IT.VS.VSORRESU" Value="mmHg"/>
<ItemData ItemOID="IT.VS.VSSTRESC" Value="88"/>
<ItemData ItemOID="IT.VS.VSSTRESN" Value="88"/>
<ItemData ItemOID="IT.VS.VSSTRESU" Value="mmHg"/>
<ItemData ItemOID="IT.VS.VSBLFL" Value="Y"/>
<ItemData ItemOID="IT.VS.VISITNUM" Value="2"/>
<ItemData ItemOID="IT.VS.VISIT" Value="BASELINE"/>
<ItemData ItemOID="IT.VS.VISITDY" Value="1"/>
<ItemData ItemOID="IT.VS.VSDTC" Value="2003-04-29"/>
<ItemData ItemOID="IT.VS.VSDY" Value="1"/>
</ItemGroupData>
<ItemGroupData ItemGroupOID="IG.VS" data:ItemGroupDataSeq="3">
<ItemData ItemOID="IT.STUDYID" Value="CDISC01"/>
<ItemData ItemOID="IT.VS.DOMAIN" Value="VS"/>
<ItemData ItemOID="IT.USUBJID" Value="CDISC01.100008"/>
<ItemData ItemOID="IT.VS.VSSEQ" Value="3"/>
<ItemData ItemOID="IT.VS.VSTESTCD" Value="DIABP"/>
<ItemData ItemOID="IT.VS.VSTEST" Value="Diastolic Blood Pressure"/>
<ItemData ItemOID="IT.VS.VSPOS" Value="SITTING"/>
<ItemData ItemOID="IT.VS.VSORRES" Value="78"/>
<ItemData ItemOID="IT.VS.VSORRESU" Value="mmHg"/>
<ItemData ItemOID="IT.VS.VSSTRESC" Value="78"/>
<ItemData ItemOID="IT.VS.VSSTRESN" Value="78"/>
<ItemData ItemOID="IT.VS.VSSTRESU" Value="mmHg"/>
<ItemData ItemOID="IT.VS.VISITNUM" Value="3"/>
<ItemData ItemOID="IT.VS.VISIT" Value="WEEK 2"/>
<ItemData ItemOID="IT.VS.VISITDY" Value="15"/>
<ItemData ItemOID="IT.VS.VSDTC" Value="2003-05-13"/>
<ItemData ItemOID="IT.VS.VSDY" Value="15"/>
</ItemGroupData>
<ItemGroupData ItemGroupOID="IG.VS" data:ItemGroupDataSeq="4">
<ItemData ItemOID="IT.STUDYID" Value="CDISC01"/>
<ItemData ItemOID="IT.VS.DOMAIN" Value="VS"/>
<ItemData ItemOID="IT.USUBJID" Value="CDISC01.100008"/>
<ItemData ItemOID="IT.VS.VSSEQ" Value="4"/>
<ItemData ItemOID="IT.VS.VSTESTCD" Value="DIABP"/>
<ItemData ItemOID="IT.VS.VSTEST" Value="Diastolic Blood Pressure"/>
<ItemData ItemOID="IT.VS.VSPOS" Value="SITTING"/>
<ItemData ItemOID="IT.VS.VSORRES" Value="90"/>
<ItemData ItemOID="IT.VS.VSORRESU" Value="mmHg"/>
<ItemData ItemOID="IT.VS.VSSTRESC" Value="90"/>
<ItemData ItemOID="IT.VS.VSSTRESN" Value="90"/>
<ItemData ItemOID="IT.VS.VSSTRESU" Value="mmHg"/>
<ItemData ItemOID="IT.VS.VISITNUM" Value="10"/>
<ItemData ItemOID="IT.VS.VISIT" Value="WEEK 24"/>
<ItemData ItemOID="IT.VS.VISITDY" Value="169"/>
<ItemData ItemOID="IT.VS.VSDTC" Value="2003-10-13"/>
<ItemData ItemOID="IT.VS.VSDY" Value="168"/>
</ItemGroupData>
<ItemGroupData ItemGroupOID="IG.VS" data:ItemGroupDataSeq="5">
<ItemData ItemOID="IT.STUDYID" Value="CDISC01"/>
<ItemData ItemOID="IT.VS.DOMAIN" Value="VS"/>
<ItemData ItemOID="IT.USUBJID" Value="CDISC01.100008"/>
<ItemData ItemOID="IT.VS.VSSEQ" Value="5"/>
<ItemData ItemOID="IT.VS.VSTESTCD" Value="FRMSIZE"/>
<ItemData ItemOID="IT.VS.VSTEST" Value="Body Frame Size"/>
<ItemData ItemOID="IT.VS.VSORRES" Value="LARGE"/>
<ItemData ItemOID="IT.VS.VSSTRESC" Value="LARGE"/>
<ItemData ItemOID="IT.VS.VISITNUM" Value="1"/>
<ItemData ItemOID="IT.VS.VISIT" Value="SCREEN"/>
<ItemData ItemOID="IT.VS.VISITDY" Value="-13"/>
<ItemData ItemOID="IT.VS.VSDTC" Value="2003-04-15"/>
<ItemData ItemOID="IT.VS.VSDY" Value="-14"/>
</ItemGroupData>
<ItemGroupData ItemGroupOID="IG.VS" data:ItemGroupDataSeq="6">
<ItemData ItemOID="IT.STUDYID" Value="CDISC01"/>
<ItemData ItemOID="IT.VS.DOMAIN" Value="VS"/>
<ItemData ItemOID="IT.USUBJID" Value="CDISC01.100008"/>
<ItemData ItemOID="IT.VS.VSSEQ" Value="6"/>
<ItemData ItemOID="IT.VS.VSTESTCD" Value="HEIGHT"/>
<ItemData ItemOID="IT.VS.VSTEST" Value="Height"/>
<ItemData ItemOID="IT.VS.VSORRES" Value="66"/>
<ItemData ItemOID="IT.VS.VSORRESU" Value="IN"/>
<ItemData ItemOID="IT.VS.VSSTRESC" Value="167.6"/>
<ItemData ItemOID="IT.VS.VSSTRESN" Value="167.6"/>
<ItemData ItemOID="IT.VS.VSSTRESU" Value="cm"/>
<ItemData ItemOID="IT.VS.VSBLFL" Value="Y"/>
<ItemData ItemOID="IT.VS.VISITNUM" Value="1"/>
<ItemData ItemOID="IT.VS.VISIT" Value="SCREEN"/>
<ItemData ItemOID="IT.VS.VISITDY" Value="-13"/>
<ItemData ItemOID="IT.VS.VSDTC" Value="2003-04-15"/>
<ItemData ItemOID="IT.VS.VSDY" Value="-14"/>
</ItemGroupData>
<ItemGroupData ItemGroupOID="IG.VS" data:ItemGroupDataSeq="7">
<ItemData ItemOID="IT.STUDYID" Value="CDISC01"/>
<ItemData ItemOID="IT.VS.DOMAIN" Value="VS"/>
<ItemData ItemOID="IT.USUBJID" Value="CDISC01.100008"/>
<ItemData ItemOID="IT.VS.VSSEQ" Value="7"/>
<ItemData ItemOID="IT.VS.VSTESTCD" Value="PULSE"/>
<ItemData ItemOID="IT.VS.VSTEST" Value="Pulse Rate"/>
<ItemData ItemOID="IT.VS.VSORRES" Value="74"/>
<ItemData ItemOID="IT.VS.VSORRESU" Value="BEATS/MIN"/>
<ItemData ItemOID="IT.VS.VSSTRESC" Value="74"/>
<ItemData ItemOID="IT.VS.VSSTRESN" Value="74"/>
<ItemData ItemOID="IT.VS.VSSTRESU" Value="BEATS/MIN"/>
<ItemData ItemOID="IT.VS.VISITNUM" Value="1"/>
<ItemData ItemOID="IT.VS.VISIT" Value="SCREEN"/>
<ItemData ItemOID="IT.VS.VISITDY" Value="-13"/>
<ItemData ItemOID="IT.VS.VSDTC" Value="2003-04-15"/>
<ItemData ItemOID="IT.VS.VSDY" Value="-14"/>
</ItemGroupData>
<ItemGroupData ItemGroupOID="IG.VS" data:ItemGroupDataSeq="8">
<ItemData ItemOID="IT.STUDYID" Value="CDISC01"/>
<ItemData ItemOID="IT.VS.DOMAIN" Value="VS"/>
<ItemData ItemOID="IT.USUBJID" Value="CDISC01.100008"/>
<ItemData ItemOID="IT.VS.VSSEQ" Value="8"/>
<ItemData ItemOID="IT.VS.VSTESTCD" Value="PULSE"/>
<ItemData ItemOID="IT.VS.VSTEST" Value="Pulse Rate"/>
<ItemData ItemOID="IT.VS.VSORRES" Value="84"/>
<ItemData ItemOID="IT.VS.VSORRESU" Value="BEATS/MIN"/>
<ItemData ItemOID="IT.VS.VSSTRESC" Value="84"/>
<ItemData ItemOID="IT.VS.VSSTRESN" Value="84"/>
<ItemData ItemOID="IT.VS.VSSTRESU" Value="BEATS/MIN"/>
<ItemData ItemOID="IT.VS.VSBLFL" Value="Y"/>
<ItemData ItemOID="IT.VS.VISITNUM" Value="2"/>
<ItemData ItemOID="IT.VS.VISIT" Value="BASELINE"/>
<ItemData ItemOID="IT.VS.VISITDY" Value="1"/>
<ItemData ItemOID="IT.VS.VSDTC" Value="2003-04-29"/>
<ItemData ItemOID="IT.VS.VSDY" Value="1"/>
</ItemGroupData>
<ItemGroupData ItemGroupOID="IG.VS" data:ItemGroupDataSeq="9">
<ItemData ItemOID="IT.STUDYID" Value="CDISC01"/>
<ItemData ItemOID="IT.VS.DOMAIN" Value="VS"/>
<ItemData ItemOID="IT.USUBJID" Value="CDISC01.100008"/>
<ItemData ItemOID="IT.VS.VSSEQ" Value="9"/>
<ItemData ItemOID="IT.VS.VSTESTCD" Value="PULSE"/>
<ItemData ItemOID="IT.VS.VSTEST" Value="Pulse Rate"/>
<ItemData ItemOID="IT.VS.VSORRES" Value="76"/>
<ItemData ItemOID="IT.VS.VSORRESU" Value="BEATS/MIN"/>
<ItemData ItemOID="IT.VS.VSSTRESC" Value="76"/>
<ItemData ItemOID="IT.VS.VSSTRESN" Value="76"/>
<ItemData ItemOID="IT.VS.VSSTRESU" Value="BEATS/MIN"/>
<ItemData ItemOID="IT.VS.VISITNUM" Value="3"/>
<ItemData ItemOID="IT.VS.VISIT" Value="WEEK 2"/>
<ItemData ItemOID="IT.VS.VISITDY" Value="15"/>
<ItemData ItemOID="IT.VS.VSDTC" Value="2003-05-13"/>
<ItemData ItemOID="IT.VS.VSDY" Value="15"/>
</ItemGroupData>
<ItemGroupData ItemGroupOID="IG.VS" data:ItemGroupDataSeq="10">
<ItemData ItemOID="IT.STUDYID" Value="CDISC01"/>
<ItemData ItemOID="IT.VS.DOMAIN" Value="VS"/>
<ItemData ItemOID="IT.USUBJID" Value="CDISC01.100008"/>
<ItemData ItemOID="IT.VS.VSSEQ" Value="10"/>
<ItemData ItemOID="IT.VS.VSTESTCD" Value="PULSE"/>
<ItemData ItemOID="IT.VS.VSTEST" Value="Pulse Rate"/>
<ItemData ItemOID="IT.VS.VSORRES" Value="80"/>
<ItemData ItemOID="IT.VS.VSORRESU" Value="BEATS/MIN"/>
<ItemData ItemOID="IT.VS.VSSTRESC" Value="80"/>
<ItemData ItemOID="IT.VS.VSSTRESN" Value="80"/>
<ItemData ItemOID="IT.VS.VSSTRESU" Value="BEATS/MIN"/>
<ItemData ItemOID="IT.VS.VISITNUM" Value="10"/>
<ItemData ItemOID="IT.VS.VISIT" Value="WEEK 24"/>
<ItemData ItemOID="IT.VS.VISITDY" Value="169"/>
<ItemData ItemOID="IT.VS.VSDTC" Value="2003-10-13"/>
<ItemData ItemOID="IT.VS.VSDY" Value="168"/>
</ItemGroupData>
<ItemGroupData ItemGroupOID="IG.VS" data:ItemGroupDataSeq="11">
<ItemData ItemOID="IT.STUDYID" Value="CDISC01"/>
<ItemData ItemOID="IT.VS.DOMAIN" Value="VS"/>
<ItemData ItemOID="IT.USUBJID" Value="CDISC01.100008"/>
<ItemData ItemOID="IT.VS.VSSEQ" Value="11"/>
<ItemData ItemOID="IT.VS.VSTESTCD" Value="SYSBP"/>
<ItemData ItemOID="IT.VS.VSTEST" Value="Systolic Blood Pressure"/>
<ItemData ItemOID="IT.VS.VSPOS" Value="SITTING"/>
<ItemData ItemOID="IT.VS.VSORRES" Value="122"/>
<ItemData ItemOID="IT.VS.VSORRESU" Value="mmHg"/>
<ItemData ItemOID="IT.VS.VSSTRESC" Value="122"/>
<ItemData ItemOID="IT.VS.VSSTRESN" Value="122"/>
<ItemData ItemOID="IT.VS.VSSTRESU" Value="mmHg"/>
<ItemData ItemOID="IT.VS.VISITNUM" Value="1"/>
<ItemData ItemOID="IT.VS.VISIT" Value="SCREEN"/>
<ItemData ItemOID="IT.VS.VISITDY" Value="-13"/>
<ItemData ItemOID="IT.VS.VSDTC" Value="2003-04-15"/>
<ItemData ItemOID="IT.VS.VSDY" Value="-14"/>
</ItemGroupData>
<ItemGroupData ItemGroupOID="IG.VS" data:ItemGroupDataSeq="12">
<ItemData ItemOID="IT.STUDYID" Value="CDISC01"/>
<ItemData ItemOID="IT.VS.DOMAIN" Value="VS"/>
<ItemData ItemOID="IT.USUBJID" Value="CDISC01.100008"/>
<ItemData ItemOID="IT.VS.VSSEQ" Value="12"/>
<ItemData ItemOID="IT.VS.VSTESTCD" Value="SYSBP"/>
<ItemData ItemOID="IT.VS.VSTEST" Value="Systolic Blood Pressure"/>
<ItemData ItemOID="IT.VS.VSPOS" Value="SITTING"/>
<ItemData ItemOID="IT.VS.VSORRES" Value="146"/>
<ItemData ItemOID="IT.VS.VSORRESU" Value="mmHg"/>
<ItemData ItemOID="IT.VS.VSSTRESC" Value="146"/>
<ItemData ItemOID="IT.VS.VSSTRESN" Value="146"/>
<ItemData ItemOID="IT.VS.VSSTRESU" Value="mmHg"/>
<ItemData ItemOID="IT.VS.VSBLFL" Value="Y"/>
<ItemData ItemOID="IT.VS.VISITNUM" Value="2"/>
<ItemData ItemOID="IT.VS.VISIT" Value="BASELINE"/>
<ItemData ItemOID="IT.VS.VISITDY" Value="1"/>
<ItemData ItemOID="IT.VS.VSDTC" Value="2003-04-29"/>
<ItemData ItemOID="IT.VS.VSDY" Value="1"/>
</ItemGroupData>
<ItemGroupData ItemGroupOID="IG.VS" data:ItemGroupDataSeq="13">
<ItemData ItemOID="IT.STUDYID" Value="CDISC01"/>
<ItemData ItemOID="IT.VS.DOMAIN" Value="VS"/>
<ItemData ItemOID="IT.USUBJID" Value="CDISC01.100008"/>
<ItemData ItemOID="IT.VS.VSSEQ" Value="13"/>
<ItemData ItemOID="IT.VS.VSTESTCD" Value="SYSBP"/>
<ItemData ItemOID="IT.VS.VSTEST" Value="Systolic Blood Pressure"/>
<ItemData ItemOID="IT.VS.VSPOS" Value="SITTING"/>
<ItemData ItemOID="IT.VS.VSORRES" Value="142"/>
<ItemData ItemOID="IT.VS.VSORRESU" Value="mmHg"/>
<ItemData ItemOID="IT.VS.VSSTRESC" Value="142"/>
<ItemData ItemOID="IT.VS.VSSTRESN" Value="142"/>
<ItemData ItemOID="IT.VS.VSSTRESU" Value="mmHg"/>
<ItemData ItemOID="IT.VS.VISITNUM" Value="3"/>
<ItemData ItemOID="IT.VS.VISIT" Value="WEEK 2"/>
<ItemData ItemOID="IT.VS.VISITDY" Value="15"/>
<ItemData ItemOID="IT.VS.VSDTC" Value="2003-05-13"/>
<ItemData ItemOID="IT.VS.VSDY" Value="15"/>
</ItemGroupData>
<ItemGroupData ItemGroupOID="IG.VS" data:ItemGroupDataSeq="14">
<ItemData ItemOID="IT.STUDYID" Value="CDISC01"/>
<ItemData ItemOID="IT.VS.DOMAIN" Value="VS"/>
<ItemData ItemOID="IT.USUBJID" Value="CDISC01.100008"/>
<ItemData ItemOID="IT.VS.VSSEQ" Value="14"/>
<ItemData ItemOID="IT.VS.VSTESTCD" Value="SYSBP"/>
<ItemData ItemOID="IT.VS.VSTEST" Value="Systolic Blood Pressure"/>
<ItemData ItemOID="IT.VS.VSPOS" Value="SITTING"/>
<ItemData ItemOID="IT.VS.VSORRES" Value="140"/>
<ItemData ItemOID="IT.VS.VSORRESU" Value="mmHg"/>
<ItemData ItemOID="IT.VS.VSSTRESC" Value="140"/>
<ItemData ItemOID="IT.VS.VSSTRESN" Value="140"/>
<ItemData ItemOID="IT.VS.VSSTRESU" Value="mmHg"/>
<ItemData ItemOID="IT.VS.VISITNUM" Value="10"/>
<ItemData ItemOID="IT.VS.VISIT" Value="WEEK 24"/>
<ItemData ItemOID="IT.VS.VISITDY" Value="169"/>
<ItemData ItemOID="IT.VS.VSDTC" Value="2003-10-13"/>
<ItemData ItemOID="IT.VS.VSDY" Value="168"/>
</ItemGroupData>
<ItemGroupData ItemGroupOID="IG.VS" data:ItemGroupDataSeq="15">
<ItemData ItemOID="IT.STUDYID" Value="CDISC01"/>
<ItemData ItemOID="IT.VS.DOMAIN" Value="VS"/>
<ItemData ItemOID="IT.USUBJID" Value="CDISC01.100008"/>
<ItemData ItemOID="IT.VS.VSSEQ" Value="15"/>
<ItemData ItemOID="IT.VS.VSTESTCD" Value="WEIGHT"/>
<ItemData ItemOID="IT.VS.VSTEST" Value="Weight"/>
<ItemData ItemOID="IT.VS.VSORRES" Value="154"/>
<ItemData ItemOID="IT.VS.VSORRESU" Value="LB"/>
<ItemData ItemOID="IT.VS.VSSTRESC" Value="69.9"/>
<ItemData ItemOID="IT.VS.VSSTRESN" Value="69.9"/>
<ItemData ItemOID="IT.VS.VSSTRESU" Value="kg"/>
<ItemData ItemOID="IT.VS.VISITNUM" Value="1"/>
<ItemData ItemOID="IT.VS.VISIT" Value="SCREEN"/>
<ItemData ItemOID="IT.VS.VISITDY" Value="-13"/>
<ItemData ItemOID="IT.VS.VSDTC" Value="2003-04-15"/>
<ItemData ItemOID="IT.VS.VSDY" Value="-14"/>
</ItemGroupData>
<ItemGroupData ItemGroupOID="IG.VS" data:ItemGroupDataSeq="16">
<ItemData ItemOID="IT.STUDYID" Value="CDISC01"/>
<ItemData ItemOID="IT.VS.DOMAIN" Value="VS"/>
<ItemData ItemOID="IT.USUBJID" Value="CDISC01.100008"/>
<ItemData ItemOID="IT.VS.VSSEQ" Value="16"/>
<ItemData ItemOID="IT.VS.VSTESTCD" Value="WEIGHT"/>
<ItemData ItemOID="IT.VS.VSTEST" Value="Weight"/>
<ItemData ItemOID="IT.VS.VSORRES" Value="156"/>
<ItemData ItemOID="IT.VS.VSORRESU" Value="LB"/>
<ItemData ItemOID="IT.VS.VSSTRESC" Value="70.8"/>
<ItemData ItemOID="IT.VS.VSSTRESN" Value="70.8"/>
<ItemData ItemOID="IT.VS.VSSTRESU" Value="kg"/>
<ItemData ItemOID="IT.VS.VSBLFL" Value="Y"/>
<ItemData ItemOID="IT.VS.VISITNUM" Value="2"/>
<ItemData ItemOID="IT.VS.VISIT" Value="BASELINE"/>
<ItemData ItemOID="IT.VS.VISITDY" Value="1"/>
<ItemData ItemOID="IT.VS.VSDTC" Value="2003-04-29"/>
<ItemData ItemOID="IT.VS.VSDY" Value="1"/>
</ItemGroupData>
<ItemGroupData ItemGroupOID="IG.VS" data:ItemGroupDataSeq="17">
<ItemData ItemOID="IT.STUDYID" Value="CDISC01"/>
<ItemData ItemOID="IT.VS.DOMAIN" Value="VS"/>
<ItemData ItemOID="IT.USUBJID" Value="CDISC01.100008"/>
<ItemData ItemOID="IT.VS.VSSEQ" Value="17"/>
<ItemData ItemOID="IT.VS.VSTESTCD" Value="WEIGHT"/>
<ItemData ItemOID="IT.VS.VSTEST" Value="Weight"/>
<ItemData ItemOID="IT.VS.VSORRES" Value="159"/>
<ItemData ItemOID="IT.VS.VSORRESU" Value="LB"/>
<ItemData ItemOID="IT.VS.VSSTRESC" Value="72.1"/>
<ItemData ItemOID="IT.VS.VSSTRESN" Value="72.1"/>
<ItemData ItemOID="IT.VS.VSSTRESU" Value="kg"/>
<ItemData ItemOID="IT.VS.VISITNUM" Value="3"/>
<ItemData ItemOID="IT.VS.VISIT" Value="WEEK 2"/>
<ItemData ItemOID="IT.VS.VISITDY" Value="15"/>
<ItemData ItemOID="IT.VS.VSDTC" Value="2003-05-13"/>
<ItemData ItemOID="IT.VS.VSDY" Value="15"/>
</ItemGroupData>
<ItemGroupData ItemGroupOID="IG.VS" data:ItemGroupDataSeq="18">
<ItemData ItemOID="IT.STUDYID" Value="CDISC01"/>
<ItemData ItemOID="IT.VS.DOMAIN" Value="VS"/>
<ItemData ItemOID="IT.USUBJID" Value="CDISC01.100008"/>
<ItemData ItemOID="IT.VS.VSSEQ" Value="18"/>
<ItemData ItemOID="IT.VS.VSTESTCD" Value="WEIGHT"/>
<ItemData ItemOID="IT.VS.VSTEST" Value="Weight"/>
<ItemData ItemOID="IT.VS.VSORRES" Value="157"/>
<ItemData ItemOID="IT.VS.VSORRESU" Value="LB"/>
<ItemData ItemOID="IT.VS.VSSTRESC" Value="71.2"/>
<ItemData ItemOID="IT.VS.VSSTRESN" Value="71.2"/>
<ItemData ItemOID="IT.VS.VSSTRESU" Value="kg"/>
<ItemData ItemOID="IT.VS.VISITNUM" Value="10"/>
<ItemData ItemOID="IT.VS.VISIT" Value="WEEK 24"/>
<ItemData ItemOID="IT.VS.VISITDY" Value="169"/>
<ItemData ItemOID="IT.VS.VSDTC" Value="2003-10-13"/>
<ItemData ItemOID="IT.VS.VSDY" Value="168"/>
</ItemGroupData>
<ItemGroupData ItemGroupOID="IG.VS" data:ItemGroupDataSeq="19">
<ItemData ItemOID="IT.STUDYID" Value="CDISC01"/>
<ItemData ItemOID="IT.VS.DOMAIN" Value="VS"/>
<ItemData ItemOID="IT.USUBJID" Value="CDISC01.100014"/>
<ItemData ItemOID="IT.VS.VSSEQ" Value="1"/>
<ItemData ItemOID="IT.VS.VSTESTCD" Value="DIABP"/>
<ItemData ItemOID="IT.VS.VSTEST" Value="Diastolic Blood Pressure"/>
<ItemData ItemOID="IT.VS.VSPOS" Value="SITTING"/>
<ItemData ItemOID="IT.VS.VSORRES" Value="60"/>
<ItemData ItemOID="IT.VS.VSORRESU" Value="mmHg"/>
<ItemData ItemOID="IT.VS.VSSTRESC" Value="60"/>
<ItemData ItemOID="IT.VS.VSSTRESN" Value="60"/>
<ItemData ItemOID="IT.VS.VSSTRESU" Value="mmHg"/>
<ItemData ItemOID="IT.VS.VISITNUM" Value="1"/>
<ItemData ItemOID="IT.VS.VISIT" Value="SCREEN"/>
<ItemData ItemOID="IT.VS.VISITDY" Value="-13"/>
<ItemData ItemOID="IT.VS.VSDTC" Value="2003-10-06"/>
<ItemData ItemOID="IT.VS.VSDY" Value="-9"/>
</ItemGroupData>
<ItemGroupData ItemGroupOID="IG.VS" data:ItemGroupDataSeq="20">
<ItemData ItemOID="IT.STUDYID" Value="CDISC01"/>
<ItemData ItemOID="IT.VS.DOMAIN" Value="VS"/>
<ItemData ItemOID="IT.USUBJID" Value="CDISC01.100014"/>
<ItemData ItemOID="IT.VS.VSSEQ" Value="2"/>
<ItemData ItemOID="IT.VS.VSTESTCD" Value="DIABP"/>
<ItemData ItemOID="IT.VS.VSTEST" Value="Diastolic Blood Pressure"/>
<ItemData ItemOID="IT.VS.VSPOS" Value="SITTING"/>
<ItemData ItemOID="IT.VS.VSORRES" Value="70"/>
<ItemData ItemOID="IT.VS.VSORRESU" Value="mmHg"/>
<ItemData ItemOID="IT.VS.VSSTRESC" Value="70"/>
<ItemData ItemOID="IT.VS.VSSTRESN" Value="70"/>
<ItemData ItemOID="IT.VS.VSSTRESU" Value="mmHg"/>
<ItemData ItemOID="IT.VS.VSBLFL" Value="Y"/>
<ItemData ItemOID="IT.VS.VISITNUM" Value="2"/>
<ItemData ItemOID="IT.VS.VISIT" Value="BASELINE"/>
<ItemData ItemOID="IT.VS.VISITDY" Value="1"/>
<ItemData ItemOID="IT.VS.VSDTC" Value="2003-10-15"/>
<ItemData ItemOID="IT.VS.VSDY" Value="1"/>
</ItemGroupData>
<ItemGroupData ItemGroupOID="IG.VS" data:ItemGroupDataSeq="21">
<ItemData ItemOID="IT.STUDYID" Value="CDISC01"/>
<ItemData ItemOID="IT.VS.DOMAIN" Value="VS"/>
<ItemData ItemOID="IT.USUBJID" Value="CDISC01.100014"/>
<ItemData ItemOID="IT.VS.VSSEQ" Value="3"/>
<ItemData ItemOID="IT.VS.VSTESTCD" Value="DIABP"/>
<ItemData ItemOID="IT.VS.VSTEST" Value="Diastolic Blood Pressure"/>
<ItemData ItemOID="IT.VS.VSPOS" Value="SITTING"/>
<ItemData ItemOID="IT.VS.VSORRES" Value="70"/>
<ItemData ItemOID="IT.VS.VSORRESU" Value="mmHg"/>
<ItemData ItemOID="IT.VS.VSSTRESC" Value="70"/>
<ItemData ItemOID="IT.VS.VSSTRESN" Value="70"/>
<ItemData ItemOID="IT.VS.VSSTRESU" Value="mmHg"/>
<ItemData ItemOID="IT.VS.VISITNUM" Value="3"/>
<ItemData ItemOID="IT.VS.VISIT" Value="WEEK 2"/>
<ItemData ItemOID="IT.VS.VISITDY" Value="15"/>
<ItemData ItemOID="IT.VS.VSDTC" Value="2003-10-31"/>
<ItemData ItemOID="IT.VS.VSDY" Value="17"/>
</ItemGroupData>
<ItemGroupData ItemGroupOID="IG.VS" data:ItemGroupDataSeq="22">
<ItemData ItemOID="IT.STUDYID" Value="CDISC01"/>
<ItemData ItemOID="IT.VS.DOMAIN" Value="VS"/>
<ItemData ItemOID="IT.USUBJID" Value="CDISC01.100014"/>
<ItemData ItemOID="IT.VS.VSSEQ" Value="4"/>
<ItemData ItemOID="IT.VS.VSTESTCD" Value="DIABP"/>
<ItemData ItemOID="IT.VS.VSTEST" Value="Diastolic Blood Pressure"/>
<ItemData ItemOID="IT.VS.VSPOS" Value="SITTING"/>
<ItemData ItemOID="IT.VS.VSORRES" Value="68"/>
<ItemData ItemOID="IT.VS.VSORRESU" Value="mmHg"/>
<ItemData ItemOID="IT.VS.VSSTRESC" Value="68"/>
<ItemData ItemOID="IT.VS.VSSTRESN" Value="68"/>
<ItemData ItemOID="IT.VS.VSSTRESU" Value="mmHg"/>
<ItemData ItemOID="IT.VS.VISITNUM" Value="10"/>
<ItemData ItemOID="IT.VS.VISIT" Value="WEEK 24"/>
<ItemData ItemOID="IT.VS.VISITDY" Value="169"/>
<ItemData ItemOID="IT.VS.VSDTC" Value="2004-03-30"/>
<ItemData ItemOID="IT.VS.VSDY" Value="168"/>
</ItemGroupData>
<ItemGroupData ItemGroupOID="IG.VS" data:ItemGroupDataSeq="23">
<ItemData ItemOID="IT.STUDYID" Value="CDISC01"/>
<ItemData ItemOID="IT.VS.DOMAIN" Value="VS"/>
<ItemData ItemOID="IT.USUBJID" Value="CDISC01.100014"/>
<ItemData ItemOID="IT.VS.VSSEQ" Value="5"/>
<ItemData ItemOID="IT.VS.VSTESTCD" Value="FRMSIZE"/>
<ItemData ItemOID="IT.VS.VSTEST" Value="Body Frame Size"/>
<ItemData ItemOID="IT.VS.VSORRES" Value="MEDIUM"/>
<ItemData ItemOID="IT.VS.VSSTRESC" Value="MEDIUM"/>
<ItemData ItemOID="IT.VS.VISITNUM" Value="1"/>
<ItemData ItemOID="IT.VS.VISIT" Value="SCREEN"/>
<ItemData ItemOID="IT.VS.VISITDY" Value="-13"/>
<ItemData ItemOID="IT.VS.VSDTC" Value="2003-10-06"/>
<ItemData ItemOID="IT.VS.VSDY" Value="-9"/>
</ItemGroupData>
<ItemGroupData ItemGroupOID="IG.VS" data:ItemGroupDataSeq="24">
<ItemData ItemOID="IT.STUDYID" Value="CDISC01"/>
<ItemData ItemOID="IT.VS.DOMAIN" Value="VS"/>
<ItemData ItemOID="IT.USUBJID" Value="CDISC01.100014"/>
<ItemData ItemOID="IT.VS.VSSEQ" Value="6"/>
<ItemData ItemOID="IT.VS.VSTESTCD" Value="HEIGHT"/>
<ItemData ItemOID="IT.VS.VSTEST" Value="Height"/>
<ItemData ItemOID="IT.VS.VSORRES" Value="60.5"/>
<ItemData ItemOID="IT.VS.VSORRESU" Value="IN"/>
<ItemData ItemOID="IT.VS.VSSTRESC" Value="153.7"/>
<ItemData ItemOID="IT.VS.VSSTRESN" Value="153.7"/>
<ItemData ItemOID="IT.VS.VSSTRESU" Value="cm"/>
<ItemData ItemOID="IT.VS.VSBLFL" Value="Y"/>
<ItemData ItemOID="IT.VS.VISITNUM" Value="1"/>
<ItemData ItemOID="IT.VS.VISIT" Value="SCREEN"/>
<ItemData ItemOID="IT.VS.VISITDY" Value="-13"/>
<ItemData ItemOID="IT.VS.VSDTC" Value="2003-10-06"/>
<ItemData ItemOID="IT.VS.VSDY" Value="-9"/>
</ItemGroupData>
<ItemGroupData ItemGroupOID="IG.VS" data:ItemGroupDataSeq="25">
<ItemData ItemOID="IT.STUDYID" Value="CDISC01"/>
<ItemData ItemOID="IT.VS.DOMAIN" Value="VS"/>
<ItemData ItemOID="IT.USUBJID" Value="CDISC01.100014"/>
<ItemData ItemOID="IT.VS.VSSEQ" Value="7"/>
<ItemData ItemOID="IT.VS.VSTESTCD" Value="PULSE"/>
<ItemData ItemOID="IT.VS.VSTEST" Value="Pulse Rate"/>
<ItemData ItemOID="IT.VS.VSORRES" Value="70"/>
<ItemData ItemOID="IT.VS.VSORRESU" Value="BEATS/MIN"/>
<ItemData ItemOID="IT.VS.VSSTRESC" Value="70"/>
<ItemData ItemOID="IT.VS.VSSTRESN" Value="70"/>
<ItemData ItemOID="IT.VS.VSSTRESU" Value="BEATS/MIN"/>
<ItemData ItemOID="IT.VS.VISITNUM" Value="1"/>
<ItemData ItemOID="IT.VS.VISIT" Value="SCREEN"/>
<ItemData ItemOID="IT.VS.VISITDY" Value="-13"/>
<ItemData ItemOID="IT.VS.VSDTC" Value="2003-10-06"/>
<ItemData ItemOID="IT.VS.VSDY" Value="-9"/>
</ItemGroupData>
<ItemGroupData ItemGroupOID="IG.VS" data:ItemGroupDataSeq="26">
<ItemData ItemOID="IT.STUDYID" Value="CDISC01"/>
<ItemData ItemOID="IT.VS.DOMAIN" Value="VS"/>
<ItemData ItemOID="IT.USUBJID" Value="CDISC01.100014"/>
<ItemData ItemOID="IT.VS.VSSEQ" Value="8"/>
<ItemData ItemOID="IT.VS.VSTESTCD" Value="PULSE"/>
<ItemData ItemOID="IT.VS.VSTEST" Value="Pulse Rate"/>
<ItemData ItemOID="IT.VS.VSORRES" Value="74"/>
<ItemData ItemOID="IT.VS.VSORRESU" Value="BEATS/MIN"/>
<ItemData ItemOID="IT.VS.VSSTRESC" Value="74"/>
<ItemData ItemOID="IT.VS.VSSTRESN" Value="74"/>
<ItemData ItemOID="IT.VS.VSSTRESU" Value="BEATS/MIN"/>
<ItemData ItemOID="IT.VS.VSBLFL" Value="Y"/>
<ItemData ItemOID="IT.VS.VISITNUM" Value="2"/>
<ItemData ItemOID="IT.VS.VISIT" Value="BASELINE"/>
<ItemData ItemOID="IT.VS.VISITDY" Value="1"/>
<ItemData ItemOID="IT.VS.VSDTC" Value="2003-10-15"/>
<ItemData ItemOID="IT.VS.VSDY" Value="1"/>
</ItemGroupData>
<ItemGroupData ItemGroupOID="IG.VS" data:ItemGroupDataSeq="27">
<ItemData ItemOID="IT.STUDYID" Value="CDISC01"/>
<ItemData ItemOID="IT.VS.DOMAIN" Value="VS"/>
<ItemData ItemOID="IT.USUBJID" Value="CDISC01.100014"/>
<ItemData ItemOID="IT.VS.VSSEQ" Value="9"/>
<ItemData ItemOID="IT.VS.VSTESTCD" Value="PULSE"/>
<ItemData ItemOID="IT.VS.VSTEST" Value="Pulse Rate"/>
<ItemData ItemOID="IT.VS.VSORRES" Value="84"/>
<ItemData ItemOID="IT.VS.VSORRESU" Value="BEATS/MIN"/>
<ItemData ItemOID="IT.VS.VSSTRESC" Value="84"/>
<ItemData ItemOID="IT.VS.VSSTRESN" Value="84"/>
<ItemData ItemOID="IT.VS.VSSTRESU" Value="BEATS/MIN"/>
<ItemData ItemOID="IT.VS.VISITNUM" Value="3"/>
<ItemData ItemOID="IT.VS.VISIT" Value="WEEK 2"/>
<ItemData ItemOID="IT.VS.VISITDY" Value="15"/>
<ItemData ItemOID="IT.VS.VSDTC" Value="2003-10-31"/>
<ItemData ItemOID="IT.VS.VSDY" Value="17"/>
</ItemGroupData>
<ItemGroupData ItemGroupOID="IG.VS" data:ItemGroupDataSeq="28">
<ItemData ItemOID="IT.STUDYID" Value="CDISC01"/>
<ItemData ItemOID="IT.VS.DOMAIN" Value="VS"/>
<ItemData ItemOID="IT.USUBJID" Value="CDISC01.100014"/>
<ItemData ItemOID="IT.VS.VSSEQ" Value="10"/>
<ItemData ItemOID="IT.VS.VSTESTCD" Value="PULSE"/>
<ItemData ItemOID="IT.VS.VSTEST" Value="Pulse Rate"/>
<ItemData ItemOID="IT.VS.VSORRES" Value="84"/>
<ItemData ItemOID="IT.VS.VSORRESU" Value="BEATS/MIN"/>
<ItemData ItemOID="IT.VS.VSSTRESC" Value="84"/>
<ItemData ItemOID="IT.VS.VSSTRESN" Value="84"/>
<ItemData ItemOID="IT.VS.VSSTRESU" Value="BEATS/MIN"/>
<ItemData ItemOID="IT.VS.VISITNUM" Value="10"/>
<ItemData ItemOID="IT.VS.VISIT" Value="WEEK 24"/>
<ItemData ItemOID="IT.VS.VISITDY" Value="169"/>
<ItemData ItemOID="IT.VS.VSDTC" Value="2004-03-30"/>
<ItemData ItemOID="IT.VS.VSDY" Value="168"/>
</ItemGroupData>
<ItemGroupData ItemGroupOID="IG.VS" data:ItemGroupDataSeq="29">
<ItemData ItemOID="IT.STUDYID" Value="CDISC01"/>
<ItemData ItemOID="IT.VS.DOMAIN" Value="VS"/>
<ItemData ItemOID="IT.USUBJID" Value="CDISC01.100014"/>
<ItemData ItemOID="IT.VS.VSSEQ" Value="11"/>
<ItemData ItemOID="IT.VS.VSTESTCD" Value="SYSBP"/>
<ItemData ItemOID="IT.VS.VSTEST" Value="Systolic Blood Pressure"/>
<ItemData ItemOID="IT.VS.VSPOS" Value="SITTING"/>
<ItemData ItemOID="IT.VS.VSORRES" Value="110"/>
<ItemData ItemOID="IT.VS.VSORRESU" Value="mmHg"/>
<ItemData ItemOID="IT.VS.VSSTRESC" Value="110"/>
<ItemData ItemOID="IT.VS.VSSTRESN" Value="110"/>
<ItemData ItemOID="IT.VS.VSSTRESU" Value="mmHg"/>
<ItemData ItemOID="IT.VS.VISITNUM" Value="1"/>
<ItemData ItemOID="IT.VS.VISIT" Value="SCREEN"/>
<ItemData ItemOID="IT.VS.VISITDY" Value="-13"/>
<ItemData ItemOID="IT.VS.VSDTC" Value="2003-10-06"/>
<ItemData ItemOID="IT.VS.VSDY" Value="-9"/>
</ItemGroupData>
<ItemGroupData ItemGroupOID="IG.VS" data:ItemGroupDataSeq="30">
<ItemData ItemOID="IT.STUDYID" Value="CDISC01"/>
<ItemData ItemOID="IT.VS.DOMAIN" Value="VS"/>
<ItemData ItemOID="IT.USUBJID" Value="CDISC01.100014"/>
<ItemData ItemOID="IT.VS.VSSEQ" Value="12"/>
<ItemData ItemOID="IT.VS.VSTESTCD" Value="SYSBP"/>
<ItemData ItemOID="IT.VS.VSTEST" Value="Systolic Blood Pressure"/>
<ItemData ItemOID="IT.VS.VSPOS" Value="SITTING"/>
<ItemData ItemOID="IT.VS.VSORRES" Value="130"/>
<ItemData ItemOID="IT.VS.VSORRESU" Value="mmHg"/>
<ItemData ItemOID="IT.VS.VSSTRESC" Value="130"/>
<ItemData ItemOID="IT.VS.VSSTRESN" Value="130"/>
<ItemData ItemOID="IT.VS.VSSTRESU" Value="mmHg"/>
<ItemData ItemOID="IT.VS.VSBLFL" Value="Y"/>
<ItemData ItemOID="IT.VS.VISITNUM" Value="2"/>
<ItemData ItemOID="IT.VS.VISIT" Value="BASELINE"/>
<ItemData ItemOID="IT.VS.VISITDY" Value="1"/>
<ItemData ItemOID="IT.VS.VSDTC" Value="2003-10-15"/>
<ItemData ItemOID="IT.VS.VSDY" Value="1"/>
</ItemGroupData>
<ItemGroupData ItemGroupOID="IG.VS" data:ItemGroupDataSeq="31">
<ItemData ItemOID="IT.STUDYID" Value="CDISC01"/>
<ItemData ItemOID="IT.VS.DOMAIN" Value="VS"/>
<ItemData ItemOID="IT.USUBJID" Value="CDISC01.100014"/>
<ItemData ItemOID="IT.VS.VSSEQ" Value="13"/>
<ItemData ItemOID="IT.VS.VSTESTCD" Value="SYSBP"/>
<ItemData ItemOID="IT.VS.VSTEST" Value="Systolic Blood Pressure"/>
<ItemData ItemOID="IT.VS.VSPOS" Value="SITTING"/>
<ItemData ItemOID="IT.VS.VSORRES" Value="118"/>
<ItemData ItemOID="IT.VS.VSORRESU" Value="mmHg"/>
<ItemData ItemOID="IT.VS.VSSTRESC" Value="118"/>
<ItemData ItemOID="IT.VS.VSSTRESN" Value="118"/>
<ItemData ItemOID="IT.VS.VSSTRESU" Value="mmHg"/>
<ItemData ItemOID="IT.VS.VISITNUM" Value="3"/>
<ItemData ItemOID="IT.VS.VISIT" Value="WEEK 2"/>
<ItemData ItemOID="IT.VS.VISITDY" Value="15"/>
<ItemData ItemOID="IT.VS.VSDTC" Value="2003-10-31"/>
<ItemData ItemOID="IT.VS.VSDY" Value="17"/>
</ItemGroupData>
<ItemGroupData ItemGroupOID="IG.VS" data:ItemGroupDataSeq="32">
<ItemData ItemOID="IT.STUDYID" Value="CDISC01"/>
<ItemData ItemOID="IT.VS.DOMAIN" Value="VS"/>
<ItemData ItemOID="IT.USUBJID" Value="CDISC01.100014"/>
<ItemData ItemOID="IT.VS.VSSEQ" Value="14"/>
<ItemData ItemOID="IT.VS.VSTESTCD" Value="SYSBP"/>
<ItemData ItemOID="IT.VS.VSTEST" Value="Systolic Blood Pressure"/>
<ItemData ItemOID="IT.VS.VSPOS" Value="SITTING"/>
<ItemData ItemOID="IT.VS.VSORRES" Value="170"/>
<ItemData ItemOID="IT.VS.VSORRESU" Value="mmHg"/>
<ItemData ItemOID="IT.VS.VSSTRESC" Value="170"/>
<ItemData ItemOID="IT.VS.VSSTRESN" Value="170"/>
<ItemData ItemOID="IT.VS.VSSTRESU" Value="mmHg"/>
<ItemData ItemOID="IT.VS.VISITNUM" Value="10"/>
<ItemData ItemOID="IT.VS.VISIT" Value="WEEK 24"/>
<ItemData ItemOID="IT.VS.VISITDY" Value="169"/>
<ItemData ItemOID="IT.VS.VSDTC" Value="2004-03-30"/>
<ItemData ItemOID="IT.VS.VSDY" Value="168"/>
</ItemGroupData>
<ItemGroupData ItemGroupOID="IG.VS" data:ItemGroupDataSeq="33">
<ItemData ItemOID="IT.STUDYID" Value="CDISC01"/>
<ItemData ItemOID="IT.VS.DOMAIN" Value="VS"/>
<ItemData ItemOID="IT.USUBJID" Value="CDISC01.100014"/>
<ItemData ItemOID="IT.VS.VSSEQ" Value="15"/>
<ItemData ItemOID="IT.VS.VSTESTCD" Value="WEIGHT"/>
<ItemData ItemOID="IT.VS.VSTEST" Value="Weight"/>
<ItemData ItemOID="IT.VS.VSORRES" Value="120"/>
<ItemData ItemOID="IT.VS.VSORRESU" Value="LB"/>
<ItemData ItemOID="IT.VS.VSSTRESC" Value="54.4"/>
<ItemData ItemOID="IT.VS.VSSTRESN" Value="54.4"/>
<ItemData ItemOID="IT.VS.VSSTRESU" Value="kg"/>
<ItemData ItemOID="IT.VS.VISITNUM" Value="1"/>
<ItemData ItemOID="IT.VS.VISIT" Value="SCREEN"/>
<ItemData ItemOID="IT.VS.VISITDY" Value="-13"/>
<ItemData ItemOID="IT.VS.VSDTC" Value="2003-10-06"/>
<ItemData ItemOID="IT.VS.VSDY" Value="-9"/>
</ItemGroupData>
<ItemGroupData ItemGroupOID="IG.VS" data:ItemGroupDataSeq="34">
<ItemData ItemOID="IT.STUDYID" Value="CDISC01"/>
<ItemData ItemOID="IT.VS.DOMAIN" Value="VS"/>
<ItemData ItemOID="IT.USUBJID" Value="CDISC01.100014"/>
<ItemData ItemOID="IT.VS.VSSEQ" Value="16"/>
<ItemData ItemOID="IT.VS.VSTESTCD" Value="WEIGHT"/>
<ItemData ItemOID="IT.VS.VSTEST" Value="Weight"/>
<ItemData ItemOID="IT.VS.VSORRES" Value="121"/>
<ItemData ItemOID="IT.VS.VSORRESU" Value="LB"/>
<ItemData ItemOID="IT.VS.VSSTRESC" Value="54.9"/>
<ItemData ItemOID="IT.VS.VSSTRESN" Value="54.9"/>
<ItemData ItemOID="IT.VS.VSSTRESU" Value="kg"/>
<ItemData ItemOID="IT.VS.VSBLFL" Value="Y"/>
<ItemData ItemOID="IT.VS.VISITNUM" Value="2"/>
<ItemData ItemOID="IT.VS.VISIT" Value="BASELINE"/>
<ItemData ItemOID="IT.VS.VISITDY" Value="1"/>
<ItemData ItemOID="IT.VS.VSDTC" Value="2003-10-15"/>
<ItemData ItemOID="IT.VS.VSDY" Value="1"/>
</ItemGroupData>
<ItemGroupData ItemGroupOID="IG.VS" data:ItemGroupDataSeq="35">
<ItemData ItemOID="IT.STUDYID" Value="CDISC01"/>
<ItemData ItemOID="IT.VS.DOMAIN" Value="VS"/>
<ItemData ItemOID="IT.USUBJID" Value="CDISC01.100014"/>
<ItemData ItemOID="IT.VS.VSSEQ" Value="17"/>
<ItemData ItemOID="IT.VS.VSTESTCD" Value="WEIGHT"/>
<ItemData ItemOID="IT.VS.VSTEST" Value="Weight"/>
<ItemData ItemOID="IT.VS.VSORRES" Value="124"/>
<ItemData ItemOID="IT.VS.VSORRESU" Value="LB"/>
<ItemData ItemOID="IT.VS.VSSTRESC" Value="56.2"/>
<ItemData ItemOID="IT.VS.VSSTRESN" Value="56.2"/>
<ItemData ItemOID="IT.VS.VSSTRESU" Value="kg"/>
<ItemData ItemOID="IT.VS.VISITNUM" Value="3"/>
<ItemData ItemOID="IT.VS.VISIT" Value="WEEK 2"/>
<ItemData ItemOID="IT.VS.VISITDY" Value="15"/>
<ItemData ItemOID="IT.VS.VSDTC" Value="2003-10-31"/>
<ItemData ItemOID="IT.VS.VSDY" Value="17"/>
</ItemGroupData>
<ItemGroupData ItemGroupOID="IG.VS" data:ItemGroupDataSeq="36">
<ItemData ItemOID="IT.STUDYID" Value="CDISC01"/>
<ItemData ItemOID="IT.VS.DOMAIN" Value="VS"/>
<ItemData ItemOID="IT.USUBJID" Value="CDISC01.100014"/>
<ItemData ItemOID="IT.VS.VSSEQ" Value="18"/>
<ItemData ItemOID="IT.VS.VSTESTCD" Value="WEIGHT"/>
<ItemData ItemOID="IT.VS.VSTEST" Value="Weight"/>
<ItemData ItemOID="IT.VS.VSORRES" Value="138"/>
<ItemData ItemOID="IT.VS.VSORRESU" Value="LB"/>
<ItemData ItemOID="IT.VS.VSSTRESC" Value="62.6"/>
<ItemData ItemOID="IT.VS.VSSTRESN" Value="62.6"/>
<ItemData ItemOID="IT.VS.VSSTRESU" Value="kg"/>
<ItemData ItemOID="IT.VS.VISITNUM" Value="10"/>
<ItemData ItemOID="IT.VS.VISIT" Value="WEEK 24"/>
<ItemData ItemOID="IT.VS.VISITDY" Value="169"/>
<ItemData ItemOID="IT.VS.VSDTC" Value="2004-03-30"/>
<ItemData ItemOID="IT.VS.VSDY" Value="168"/>
</ItemGroupData>
<ItemGroupData ItemGroupOID="IG.VS" data:ItemGroupDataSeq="37">
<ItemData ItemOID="IT.STUDYID" Value="CDISC01"/>
<ItemData ItemOID="IT.VS.DOMAIN" Value="VS"/>
<ItemData ItemOID="IT.USUBJID" Value="CDISC01.200001"/>
<ItemData ItemOID="IT.VS.VSSEQ" Value="1"/>
<ItemData ItemOID="IT.VS.VSTESTCD" Value="DIABP"/>
<ItemData ItemOID="IT.VS.VSTEST" Value="Diastolic Blood Pressure"/>
<ItemData ItemOID="IT.VS.VSPOS" Value="SITTING"/>
<ItemData ItemOID="IT.VS.VSORRES" Value="72"/>
<ItemData ItemOID="IT.VS.VSORRESU" Value="mmHg"/>
<ItemData ItemOID="IT.VS.VSSTRESC" Value="72"/>
<ItemData ItemOID="IT.VS.VSSTRESN" Value="72"/>
<ItemData ItemOID="IT.VS.VSSTRESU" Value="mmHg"/>
<ItemData ItemOID="IT.VS.VISITNUM" Value="1"/>
<ItemData ItemOID="IT.VS.VISIT" Value="SCREEN"/>
<ItemData ItemOID="IT.VS.VISITDY" Value="-13"/>
<ItemData ItemOID="IT.VS.VSDTC" Value="2003-09-09"/>
<ItemData ItemOID="IT.VS.VSDY" Value="-21"/>
</ItemGroupData>
<ItemGroupData ItemGroupOID="IG.VS" data:ItemGroupDataSeq="38">
<ItemData ItemOID="IT.STUDYID" Value="CDISC01"/>
<ItemData ItemOID="IT.VS.DOMAIN" Value="VS"/>
<ItemData ItemOID="IT.USUBJID" Value="CDISC01.200001"/>
<ItemData ItemOID="IT.VS.VSSEQ" Value="2"/>
<ItemData ItemOID="IT.VS.VSTESTCD" Value="DIABP"/>
<ItemData ItemOID="IT.VS.VSTEST" Value="Diastolic Blood Pressure"/>
<ItemData ItemOID="IT.VS.VSPOS" Value="SITTING"/>
<ItemData ItemOID="IT.VS.VSORRES" Value="80"/>
<ItemData ItemOID="IT.VS.VSORRESU" Value="mmHg"/>
<ItemData ItemOID="IT.VS.VSSTRESC" Value="80"/>
<ItemData ItemOID="IT.VS.VSSTRESN" Value="80"/>
<ItemData ItemOID="IT.VS.VSSTRESU" Value="mmHg"/>
<ItemData ItemOID="IT.VS.VSBLFL" Value="Y"/>
<ItemData ItemOID="IT.VS.VISITNUM" Value="2"/>
<ItemData ItemOID="IT.VS.VISIT" Value="BASELINE"/>
<ItemData ItemOID="IT.VS.VISITDY" Value="1"/>
<ItemData ItemOID="IT.VS.VSDTC" Value="2003-09-30"/>
<ItemData ItemOID="IT.VS.VSDY" Value="1"/>
</ItemGroupData>
<ItemGroupData ItemGroupOID="IG.VS" data:ItemGroupDataSeq="39">
<ItemData ItemOID="IT.STUDYID" Value="CDISC01"/>
<ItemData ItemOID="IT.VS.DOMAIN" Value="VS"/>
<ItemData ItemOID="IT.USUBJID" Value="CDISC01.200001"/>
<ItemData ItemOID="IT.VS.VSSEQ" Value="3"/>
<ItemData ItemOID="IT.VS.VSTESTCD" Value="DIABP"/>
<ItemData ItemOID="IT.VS.VSTEST" Value="Diastolic Blood Pressure"/>
<ItemData ItemOID="IT.VS.VSPOS" Value="SITTING"/>
<ItemData ItemOID="IT.VS.VSORRES" Value="70"/>
<ItemData ItemOID="IT.VS.VSORRESU" Value="mmHg"/>
<ItemData ItemOID="IT.VS.VSSTRESC" Value="70"/>
<ItemData ItemOID="IT.VS.VSSTRESN" Value="70"/>
<ItemData ItemOID="IT.VS.VSSTRESU" Value="mmHg"/>
<ItemData ItemOID="IT.VS.VISITNUM" Value="3"/>
<ItemData ItemOID="IT.VS.VISIT" Value="WEEK 2"/>
<ItemData ItemOID="IT.VS.VISITDY" Value="15"/>
<ItemData ItemOID="IT.VS.VSDTC" Value="2003-10-14"/>
<ItemData ItemOID="IT.VS.VSDY" Value="15"/>
</ItemGroupData>
<ItemGroupData ItemGroupOID="IG.VS" data:ItemGroupDataSeq="40">
<ItemData ItemOID="IT.STUDYID" Value="CDISC01"/>
<ItemData ItemOID="IT.VS.DOMAIN" Value="VS"/>
<ItemData ItemOID="IT.USUBJID" Value="CDISC01.200001"/>
<ItemData ItemOID="IT.VS.VSSEQ" Value="4"/>
<ItemData ItemOID="IT.VS.VSTESTCD" Value="DIABP"/>
<ItemData ItemOID="IT.VS.VSTEST" Value="Diastolic Blood Pressure"/>
<ItemData ItemOID="IT.VS.VSPOS" Value="SITTING"/>
<ItemData ItemOID="IT.VS.VSORRES" Value="76"/>
<ItemData ItemOID="IT.VS.VSORRESU" Value="mmHg"/>
<ItemData ItemOID="IT.VS.VSSTRESC" Value="76"/>
<ItemData ItemOID="IT.VS.VSSTRESN" Value="76"/>
<ItemData ItemOID="IT.VS.VSSTRESU" Value="mmHg"/>
<ItemData ItemOID="IT.VS.VISITNUM" Value="10"/>
<ItemData ItemOID="IT.VS.VISIT" Value="WEEK 24"/>
<ItemData ItemOID="IT.VS.VISITDY" Value="169"/>
<ItemData ItemOID="IT.VS.VSDTC" Value="2004-02-02"/>
<ItemData ItemOID="IT.VS.VSDY" Value="126"/>
</ItemGroupData>
<ItemGroupData ItemGroupOID="IG.VS" data:ItemGroupDataSeq="41">
<ItemData ItemOID="IT.STUDYID" Value="CDISC01"/>
<ItemData ItemOID="IT.VS.DOMAIN" Value="VS"/>
<ItemData ItemOID="IT.USUBJID" Value="CDISC01.200001"/>
<ItemData ItemOID="IT.VS.VSSEQ" Value="5"/>
<ItemData ItemOID="IT.VS.VSTESTCD" Value="FRMSIZE"/>
<ItemData ItemOID="IT.VS.VSTEST" Value="Body Frame Size"/>
<ItemData ItemOID="IT.VS.VSORRES" Value="SMALL"/>
<ItemData ItemOID="IT.VS.VSSTRESC" Value="SMALL"/>
<ItemData ItemOID="IT.VS.VISITNUM" Value="1"/>
<ItemData ItemOID="IT.VS.VISIT" Value="SCREEN"/>
<ItemData ItemOID="IT.VS.VISITDY" Value="-13"/>
<ItemData ItemOID="IT.VS.VSDTC" Value="2003-09-09"/>
<ItemData ItemOID="IT.VS.VSDY" Value="-21"/>
</ItemGroupData>
<ItemGroupData ItemGroupOID="IG.VS" data:ItemGroupDataSeq="42">
<ItemData ItemOID="IT.STUDYID" Value="CDISC01"/>
<ItemData ItemOID="IT.VS.DOMAIN" Value="VS"/>
<ItemData ItemOID="IT.USUBJID" Value="CDISC01.200001"/>
<ItemData ItemOID="IT.VS.VSSEQ" Value="6"/>
<ItemData ItemOID="IT.VS.VSTESTCD" Value="HEIGHT"/>
<ItemData ItemOID="IT.VS.VSTEST" Value="Height"/>
<ItemData ItemOID="IT.VS.VSORRES" Value="63"/>
<ItemData ItemOID="IT.VS.VSORRESU" Value="IN"/>
<ItemData ItemOID="IT.VS.VSSTRESC" Value="160"/>
<ItemData ItemOID="IT.VS.VSSTRESN" Value="160"/>
<ItemData ItemOID="IT.VS.VSSTRESU" Value="cm"/>
<ItemData ItemOID="IT.VS.VSBLFL" Value="Y"/>
<ItemData ItemOID="IT.VS.VISITNUM" Value="1"/>
<ItemData ItemOID="IT.VS.VISIT" Value="SCREEN"/>
<ItemData ItemOID="IT.VS.VISITDY" Value="-13"/>
<ItemData ItemOID="IT.VS.VSDTC" Value="2003-09-09"/>
<ItemData ItemOID="IT.VS.VSDY" Value="-21"/>
</ItemGroupData>
<ItemGroupData ItemGroupOID="IG.VS" data:ItemGroupDataSeq="43">
<ItemData ItemOID="IT.STUDYID" Value="CDISC01"/>
<ItemData ItemOID="IT.VS.DOMAIN" Value="VS"/>
<ItemData ItemOID="IT.USUBJID" Value="CDISC01.200001"/>
<ItemData ItemOID="IT.VS.VSSEQ" Value="7"/>
<ItemData ItemOID="IT.VS.VSTESTCD" Value="PULSE"/>
<ItemData ItemOID="IT.VS.VSTEST" Value="Pulse Rate"/>
<ItemData ItemOID="IT.VS.VSORRES" Value="64"/>
<ItemData ItemOID="IT.VS.VSORRESU" Value="BEATS/MIN"/>
<ItemData ItemOID="IT.VS.VSSTRESC" Value="64"/>
<ItemData ItemOID="IT.VS.VSSTRESN" Value="64"/>
<ItemData ItemOID="IT.VS.VSSTRESU" Value="BEATS/MIN"/>
<ItemData ItemOID="IT.VS.VISITNUM" Value="1"/>
<ItemData ItemOID="IT.VS.VISIT" Value="SCREEN"/>
<ItemData ItemOID="IT.VS.VISITDY" Value="-13"/>
<ItemData ItemOID="IT.VS.VSDTC" Value="2003-09-09"/>
<ItemData ItemOID="IT.VS.VSDY" Value="-21"/>
</ItemGroupData>
<ItemGroupData ItemGroupOID="IG.VS" data:ItemGroupDataSeq="44">
<ItemData ItemOID="IT.STUDYID" Value="CDISC01"/>
<ItemData ItemOID="IT.VS.DOMAIN" Value="VS"/>
<ItemData ItemOID="IT.USUBJID" Value="CDISC01.200001"/>
<ItemData ItemOID="IT.VS.VSSEQ" Value="8"/>
<ItemData ItemOID="IT.VS.VSTESTCD" Value="PULSE"/>
<ItemData ItemOID="IT.VS.VSTEST" Value="Pulse Rate"/>
<ItemData ItemOID="IT.VS.VSORRES" Value="68"/>
<ItemData ItemOID="IT.VS.VSORRESU" Value="BEATS/MIN"/>
<ItemData ItemOID="IT.VS.VSSTRESC" Value="68"/>
<ItemData ItemOID="IT.VS.VSSTRESN" Value="68"/>
<ItemData ItemOID="IT.VS.VSSTRESU" Value="BEATS/MIN"/>
<ItemData ItemOID="IT.VS.VSBLFL" Value="Y"/>
<ItemData ItemOID="IT.VS.VISITNUM" Value="2"/>
<ItemData ItemOID="IT.VS.VISIT" Value="BASELINE"/>
<ItemData ItemOID="IT.VS.VISITDY" Value="1"/>
<ItemData ItemOID="IT.VS.VSDTC" Value="2003-09-30"/>
<ItemData ItemOID="IT.VS.VSDY" Value="1"/>
</ItemGroupData>
<ItemGroupData ItemGroupOID="IG.VS" data:ItemGroupDataSeq="45">
<ItemData ItemOID="IT.STUDYID" Value="CDISC01"/>
<ItemData ItemOID="IT.VS.DOMAIN" Value="VS"/>
<ItemData ItemOID="IT.USUBJID" Value="CDISC01.200001"/>
<ItemData ItemOID="IT.VS.VSSEQ" Value="9"/>
<ItemData ItemOID="IT.VS.VSTESTCD" Value="PULSE"/>
<ItemData ItemOID="IT.VS.VSTEST" Value="Pulse Rate"/>
<ItemData ItemOID="IT.VS.VSORRES" Value="76"/>
<ItemData ItemOID="IT.VS.VSORRESU" Value="BEATS/MIN"/>
<ItemData ItemOID="IT.VS.VSSTRESC" Value="76"/>
<ItemData ItemOID="IT.VS.VSSTRESN" Value="76"/>
<ItemData ItemOID="IT.VS.VSSTRESU" Value="BEATS/MIN"/>
<ItemData ItemOID="IT.VS.VISITNUM" Value="3"/>
<ItemData ItemOID="IT.VS.VISIT" Value="WEEK 2"/>
<ItemData ItemOID="IT.VS.VISITDY" Value="15"/>
<ItemData ItemOID="IT.VS.VSDTC" Value="2003-10-14"/>
<ItemData ItemOID="IT.VS.VSDY" Value="15"/>
</ItemGroupData>
<ItemGroupData ItemGroupOID="IG.VS" data:ItemGroupDataSeq="46">
<ItemData ItemOID="IT.STUDYID" Value="CDISC01"/>
<ItemData ItemOID="IT.VS.DOMAIN" Value="VS"/>
<ItemData ItemOID="IT.USUBJID" Value="CDISC01.200001"/>
<ItemData ItemOID="IT.VS.VSSEQ" Value="10"/>
<ItemData ItemOID="IT.VS.VSTESTCD" Value="PULSE"/>
<ItemData ItemOID="IT.VS.VSTEST" Value="Pulse Rate"/>
<ItemData ItemOID="IT.VS.VSORRES" Value="84"/>
<ItemData ItemOID="IT.VS.VSORRESU" Value="BEATS/MIN"/>
<ItemData ItemOID="IT.VS.VSSTRESC" Value="84"/>
<ItemData ItemOID="IT.VS.VSSTRESN" Value="84"/>
<ItemData ItemOID="IT.VS.VSSTRESU" Value="BEATS/MIN"/>
<ItemData ItemOID="IT.VS.VISITNUM" Value="10"/>
<ItemData ItemOID="IT.VS.VISIT" Value="WEEK 24"/>
<ItemData ItemOID="IT.VS.VISITDY" Value="169"/>
<ItemData ItemOID="IT.VS.VSDTC" Value="2004-02-02"/>
<ItemData ItemOID="IT.VS.VSDY" Value="126"/>
</ItemGroupData>
<ItemGroupData ItemGroupOID="IG.VS" data:ItemGroupDataSeq="47">
<ItemData ItemOID="IT.STUDYID" Value="CDISC01"/>
<ItemData ItemOID="IT.VS.DOMAIN" Value="VS"/>
<ItemData ItemOID="IT.USUBJID" Value="CDISC01.200001"/>
<ItemData ItemOID="IT.VS.VSSEQ" Value="11"/>
<ItemData ItemOID="IT.VS.VSTESTCD" Value="SYSBP"/>
<ItemData ItemOID="IT.VS.VSTEST" Value="Systolic Blood Pressure"/>
<ItemData ItemOID="IT.VS.VSPOS" Value="SITTING"/>
<ItemData ItemOID="IT.VS.VSORRES" Value="136"/>
<ItemData ItemOID="IT.VS.VSORRESU" Value="mmHg"/>
<ItemData ItemOID="IT.VS.VSSTRESC" Value="136"/>
<ItemData ItemOID="IT.VS.VSSTRESN" Value="136"/>
<ItemData ItemOID="IT.VS.VSSTRESU" Value="mmHg"/>
<ItemData ItemOID="IT.VS.VISITNUM" Value="1"/>
<ItemData ItemOID="IT.VS.VISIT" Value="SCREEN"/>
<ItemData ItemOID="IT.VS.VISITDY" Value="-13"/>
<ItemData ItemOID="IT.VS.VSDTC" Value="2003-09-09"/>
<ItemData ItemOID="IT.VS.VSDY" Value="-21"/>
</ItemGroupData>
<ItemGroupData ItemGroupOID="IG.VS" data:ItemGroupDataSeq="48">
<ItemData ItemOID="IT.STUDYID" Value="CDISC01"/>
<ItemData ItemOID="IT.VS.DOMAIN" Value="VS"/>
<ItemData ItemOID="IT.USUBJID" Value="CDISC01.200001"/>
<ItemData ItemOID="IT.VS.VSSEQ" Value="12"/>
<ItemData ItemOID="IT.VS.VSTESTCD" Value="SYSBP"/>
<ItemData ItemOID="IT.VS.VSTEST" Value="Systolic Blood Pressure"/>
<ItemData ItemOID="IT.VS.VSPOS" Value="SITTING"/>
<ItemData ItemOID="IT.VS.VSORRES" Value="140"/>
<ItemData ItemOID="IT.VS.VSORRESU" Value="mmHg"/>
<ItemData ItemOID="IT.VS.VSSTRESC" Value="140"/>
<ItemData ItemOID="IT.VS.VSSTRESN" Value="140"/>
<ItemData ItemOID="IT.VS.VSSTRESU" Value="mmHg"/>
<ItemData ItemOID="IT.VS.VSBLFL" Value="Y"/>
<ItemData ItemOID="IT.VS.VISITNUM" Value="2"/>
<ItemData ItemOID="IT.VS.VISIT" Value="BASELINE"/>
<ItemData ItemOID="IT.VS.VISITDY" Value="1"/>
<ItemData ItemOID="IT.VS.VSDTC" Value="2003-09-30"/>
<ItemData ItemOID="IT.VS.VSDY" Value="1"/>
</ItemGroupData>
<ItemGroupData ItemGroupOID="IG.VS" data:ItemGroupDataSeq="49">
<ItemData ItemOID="IT.STUDYID" Value="CDISC01"/>
<ItemData ItemOID="IT.VS.DOMAIN" Value="VS"/>
<ItemData ItemOID="IT.USUBJID" Value="CDISC01.200001"/>
<ItemData ItemOID="IT.VS.VSSEQ" Value="13"/>
<ItemData ItemOID="IT.VS.VSTESTCD" Value="SYSBP"/>
<ItemData ItemOID="IT.VS.VSTEST" Value="Systolic Blood Pressure"/>
<ItemData ItemOID="IT.VS.VSPOS" Value="SITTING"/>
<ItemData ItemOID="IT.VS.VSORRES" Value="152"/>
<ItemData ItemOID="IT.VS.VSORRESU" Value="mmHg"/>
<ItemData ItemOID="IT.VS.VSSTRESC" Value="152"/>
<ItemData ItemOID="IT.VS.VSSTRESN" Value="152"/>
<ItemData ItemOID="IT.VS.VSSTRESU" Value="mmHg"/>
<ItemData ItemOID="IT.VS.VISITNUM" Value="3"/>
<ItemData ItemOID="IT.VS.VISIT" Value="WEEK 2"/>
<ItemData ItemOID="IT.VS.VISITDY" Value="15"/>
<ItemData ItemOID="IT.VS.VSDTC" Value="2003-10-14"/>
<ItemData ItemOID="IT.VS.VSDY" Value="15"/>
</ItemGroupData>
<ItemGroupData ItemGroupOID="IG.VS" data:ItemGroupDataSeq="50">
<ItemData ItemOID="IT.STUDYID" Value="CDISC01"/>
<ItemData ItemOID="IT.VS.DOMAIN" Value="VS"/>
<ItemData ItemOID="IT.USUBJID" Value="CDISC01.200001"/>
<ItemData ItemOID="IT.VS.VSSEQ" Value="14"/>
<ItemData ItemOID="IT.VS.VSTESTCD" Value="SYSBP"/>
<ItemData ItemOID="IT.VS.VSTEST" Value="Systolic Blood Pressure"/>
<ItemData ItemOID="IT.VS.VSPOS" Value="SITTING"/>
<ItemData ItemOID="IT.VS.VSORRES" Value="160"/>
<ItemData ItemOID="IT.VS.VSORRESU" Value="mmHg"/>
<ItemData ItemOID="IT.VS.VSSTRESC" Value="160"/>
<ItemData ItemOID="IT.VS.VSSTRESN" Value="160"/>
<ItemData ItemOID="IT.VS.VSSTRESU" Value="mmHg"/>
<ItemData ItemOID="IT.VS.VISITNUM" Value="10"/>
<ItemData ItemOID="IT.VS.VISIT" Value="WEEK 24"/>
<ItemData ItemOID="IT.VS.VISITDY" Value="169"/>
<ItemData ItemOID="IT.VS.VSDTC" Value="2004-02-02"/>
<ItemData ItemOID="IT.VS.VSDY" Value="126"/>
</ItemGroupData>
<ItemGroupData ItemGroupOID="IG.VS" data:ItemGroupDataSeq="51">
<ItemData ItemOID="IT.STUDYID" Value="CDISC01"/>
<ItemData ItemOID="IT.VS.DOMAIN" Value="VS"/>
<ItemData ItemOID="IT.USUBJID" Value="CDISC01.200001"/>
<ItemData ItemOID="IT.VS.VSSEQ" Value="15"/>
<ItemData ItemOID="IT.VS.VSTESTCD" Value="WEIGHT"/>
<ItemData ItemOID="IT.VS.VSTEST" Value="Weight"/>
<ItemData ItemOID="IT.VS.VSORRES" Value="114"/>
<ItemData ItemOID="IT.VS.VSORRESU" Value="LB"/>
<ItemData ItemOID="IT.VS.VSSTRESC" Value="51.7"/>
<ItemData ItemOID="IT.VS.VSSTRESN" Value="51.7"/>
<ItemData ItemOID="IT.VS.VSSTRESU" Value="kg"/>
<ItemData ItemOID="IT.VS.VISITNUM" Value="1"/>
<ItemData ItemOID="IT.VS.VISIT" Value="SCREEN"/>
<ItemData ItemOID="IT.VS.VISITDY" Value="-13"/>
<ItemData ItemOID="IT.VS.VSDTC" Value="2003-09-09"/>
<ItemData ItemOID="IT.VS.VSDY" Value="-21"/>
</ItemGroupData>
<ItemGroupData ItemGroupOID="IG.VS" data:ItemGroupDataSeq="52">
<ItemData ItemOID="IT.STUDYID" Value="CDISC01"/>
<ItemData ItemOID="IT.VS.DOMAIN" Value="VS"/>
<ItemData ItemOID="IT.USUBJID" Value="CDISC01.200001"/>
<ItemData ItemOID="IT.VS.VSSEQ" Value="16"/>
<ItemData ItemOID="IT.VS.VSTESTCD" Value="WEIGHT"/>
<ItemData ItemOID="IT.VS.VSTEST" Value="Weight"/>
<ItemData ItemOID="IT.VS.VSORRES" Value="113"/>
<ItemData ItemOID="IT.VS.VSORRESU" Value="LB"/>
<ItemData ItemOID="IT.VS.VSSTRESC" Value="51.3"/>
<ItemData ItemOID="IT.VS.VSSTRESN" Value="51.3"/>
<ItemData ItemOID="IT.VS.VSSTRESU" Value="kg"/>
<ItemData ItemOID="IT.VS.VSBLFL" Value="Y"/>
<ItemData ItemOID="IT.VS.VISITNUM" Value="2"/>
<ItemData ItemOID="IT.VS.VISIT" Value="BASELINE"/>
<ItemData ItemOID="IT.VS.VISITDY" Value="1"/>
<ItemData ItemOID="IT.VS.VSDTC" Value="2003-09-30"/>
<ItemData ItemOID="IT.VS.VSDY" Value="1"/>
</ItemGroupData>
<ItemGroupData ItemGroupOID="IG.VS" data:ItemGroupDataSeq="53">
<ItemData ItemOID="IT.STUDYID" Value="CDISC01"/>
<ItemData ItemOID="IT.VS.DOMAIN" Value="VS"/>
<ItemData ItemOID="IT.USUBJID" Value="CDISC01.200001"/>
<ItemData ItemOID="IT.VS.VSSEQ" Value="17"/>
<ItemData ItemOID="IT.VS.VSTESTCD" Value="WEIGHT"/>
<ItemData ItemOID="IT.VS.VSTEST" Value="Weight"/>
<ItemData ItemOID="IT.VS.VSORRES" Value="114"/>
<ItemData ItemOID="IT.VS.VSORRESU" Value="LB"/>
<ItemData ItemOID="IT.VS.VSSTRESC" Value="51.7"/>
<ItemData ItemOID="IT.VS.VSSTRESN" Value="51.7"/>
<ItemData ItemOID="IT.VS.VSSTRESU" Value="kg"/>
<ItemData ItemOID="IT.VS.VISITNUM" Value="3"/>
<ItemData ItemOID="IT.VS.VISIT" Value="WEEK 2"/>
<ItemData ItemOID="IT.VS.VISITDY" Value="15"/>
<ItemData ItemOID="IT.VS.VSDTC" Value="2003-10-14"/>
<ItemData ItemOID="IT.VS.VSDY" Value="15"/>
</ItemGroupData>
<ItemGroupData ItemGroupOID="IG.VS" data:ItemGroupDataSeq="54">
<ItemData ItemOID="IT.STUDYID" Value="CDISC01"/>
<ItemData ItemOID="IT.VS.DOMAIN" Value="VS"/>
<ItemData ItemOID="IT.USUBJID" Value="CDISC01.200001"/>
<ItemData ItemOID="IT.VS.VSSEQ" Value="18"/>
<ItemData ItemOID="IT.VS.VSTESTCD" Value="WEIGHT"/>
<ItemData ItemOID="IT.VS.VSTEST" Value="Weight"/>
<ItemData ItemOID="IT.VS.VSORRES" Value="109"/>
<ItemData ItemOID="IT.VS.VSORRESU" Value="LB"/>
<ItemData ItemOID="IT.VS.VSSTRESC" Value="49.4"/>
<ItemData ItemOID="IT.VS.VSSTRESN" Value="49.4"/>
<ItemData ItemOID="IT.VS.VSSTRESU" Value="kg"/>
<ItemData ItemOID="IT.VS.VISITNUM" Value="10"/>
<ItemData ItemOID="IT.VS.VISIT" Value="WEEK 24"/>
<ItemData ItemOID="IT.VS.VISITDY" Value="169"/>
<ItemData ItemOID="IT.VS.VSDTC" Value="2004-02-02"/>
<ItemData ItemOID="IT.VS.VSDY" Value="126"/>
</ItemGroupData>
<ItemGroupData ItemGroupOID="IG.VS" data:ItemGroupDataSeq="55">
<ItemData ItemOID="IT.STUDYID" Value="CDISC01"/>
<ItemData ItemOID="IT.VS.DOMAIN" Value="VS"/>
<ItemData ItemOID="IT.USUBJID" Value="CDISC01.200002"/>
<ItemData ItemOID="IT.VS.VSSEQ" Value="1"/>
<ItemData ItemOID="IT.VS.VSTESTCD" Value="DIABP"/>
<ItemData ItemOID="IT.VS.VSTEST" Value="Diastolic Blood Pressure"/>
<ItemData ItemOID="IT.VS.VSPOS" Value="SITTING"/>
<ItemData ItemOID="IT.VS.VSORRES" Value="82"/>
<ItemData ItemOID="IT.VS.VSORRESU" Value="mmHg"/>
<ItemData ItemOID="IT.VS.VSSTRESC" Value="82"/>
<ItemData ItemOID="IT.VS.VSSTRESN" Value="82"/>
<ItemData ItemOID="IT.VS.VSSTRESU" Value="mmHg"/>
<ItemData ItemOID="IT.VS.VISITNUM" Value="1"/>
<ItemData ItemOID="IT.VS.VISIT" Value="SCREEN"/>
<ItemData ItemOID="IT.VS.VISITDY" Value="-13"/>
<ItemData ItemOID="IT.VS.VSDTC" Value="2003-09-18"/>
<ItemData ItemOID="IT.VS.VSDY" Value="-22"/>
</ItemGroupData>
<ItemGroupData ItemGroupOID="IG.VS" data:ItemGroupDataSeq="56">
<ItemData ItemOID="IT.STUDYID" Value="CDISC01"/>
<ItemData ItemOID="IT.VS.DOMAIN" Value="VS"/>
<ItemData ItemOID="IT.USUBJID" Value="CDISC01.200002"/>
<ItemData ItemOID="IT.VS.VSSEQ" Value="2"/>
<ItemData ItemOID="IT.VS.VSTESTCD" Value="DIABP"/>
<ItemData ItemOID="IT.VS.VSTEST" Value="Diastolic Blood Pressure"/>
<ItemData ItemOID="IT.VS.VSPOS" Value="SITTING"/>
<ItemData ItemOID="IT.VS.VSORRES" Value="88"/>
<ItemData ItemOID="IT.VS.VSORRESU" Value="mmHg"/>
<ItemData ItemOID="IT.VS.VSSTRESC" Value="88"/>
<ItemData ItemOID="IT.VS.VSSTRESN" Value="88"/>
<ItemData ItemOID="IT.VS.VSSTRESU" Value="mmHg"/>
<ItemData ItemOID="IT.VS.VSBLFL" Value="Y"/>
<ItemData ItemOID="IT.VS.VISITNUM" Value="2"/>
<ItemData ItemOID="IT.VS.VISIT" Value="BASELINE"/>
<ItemData ItemOID="IT.VS.VISITDY" Value="1"/>
<ItemData ItemOID="IT.VS.VSDTC" Value="2003-10-10"/>
<ItemData ItemOID="IT.VS.VSDY" Value="1"/>
</ItemGroupData>
<ItemGroupData ItemGroupOID="IG.VS" data:ItemGroupDataSeq="57">
<ItemData ItemOID="IT.STUDYID" Value="CDISC01"/>
<ItemData ItemOID="IT.VS.DOMAIN" Value="VS"/>
<ItemData ItemOID="IT.USUBJID" Value="CDISC01.200002"/>
<ItemData ItemOID="IT.VS.VSSEQ" Value="3"/>
<ItemData ItemOID="IT.VS.VSTESTCD" Value="DIABP"/>
<ItemData ItemOID="IT.VS.VSTEST" Value="Diastolic Blood Pressure"/>
<ItemData ItemOID="IT.VS.VSPOS" Value="SITTING"/>
<ItemData ItemOID="IT.VS.VSORRES" Value="78"/>
<ItemData ItemOID="IT.VS.VSORRESU" Value="mmHg"/>
<ItemData ItemOID="IT.VS.VSSTRESC" Value="78"/>
<ItemData ItemOID="IT.VS.VSSTRESN" Value="78"/>
<ItemData ItemOID="IT.VS.VSSTRESU" Value="mmHg"/>
<ItemData ItemOID="IT.VS.VISITNUM" Value="3"/>
<ItemData ItemOID="IT.VS.VISIT" Value="WEEK 2"/>
<ItemData ItemOID="IT.VS.VISITDY" Value="15"/>
<ItemData ItemOID="IT.VS.VSDTC" Value="2003-10-24"/>
<ItemData ItemOID="IT.VS.VSDY" Value="15"/>
</ItemGroupData>
<ItemGroupData ItemGroupOID="IG.VS" data:ItemGroupDataSeq="58">
<ItemData ItemOID="IT.STUDYID" Value="CDISC01"/>
<ItemData ItemOID="IT.VS.DOMAIN" Value="VS"/>
<ItemData ItemOID="IT.USUBJID" Value="CDISC01.200002"/>
<ItemData ItemOID="IT.VS.VSSEQ" Value="4"/>
<ItemData ItemOID="IT.VS.VSTESTCD" Value="DIABP"/>
<ItemData ItemOID="IT.VS.VSTEST" Value="Diastolic Blood Pressure"/>
<ItemData ItemOID="IT.VS.VSPOS" Value="SITTING"/>
<ItemData ItemOID="IT.VS.VSORRES" Value="82"/>
<ItemData ItemOID="IT.VS.VSORRESU" Value="mmHg"/>
<ItemData ItemOID="IT.VS.VSSTRESC" Value="82"/>
<ItemData ItemOID="IT.VS.VSSTRESN" Value="82"/>
<ItemData ItemOID="IT.VS.VSSTRESU" Value="mmHg"/>
<ItemData ItemOID="IT.VS.VISITNUM" Value="10"/>
<ItemData ItemOID="IT.VS.VISIT" Value="WEEK 24"/>
<ItemData ItemOID="IT.VS.VISITDY" Value="169"/>
<ItemData ItemOID="IT.VS.VSDTC" Value="2004-03-29"/>
<ItemData ItemOID="IT.VS.VSDY" Value="172"/>
</ItemGroupData>
<ItemGroupData ItemGroupOID="IG.VS" data:ItemGroupDataSeq="59">
<ItemData ItemOID="IT.STUDYID" Value="CDISC01"/>
<ItemData ItemOID="IT.VS.DOMAIN" Value="VS"/>
<ItemData ItemOID="IT.USUBJID" Value="CDISC01.200002"/>
<ItemData ItemOID="IT.VS.VSSEQ" Value="5"/>
<ItemData ItemOID="IT.VS.VSTESTCD" Value="FRMSIZE"/>
<ItemData ItemOID="IT.VS.VSTEST" Value="Body Frame Size"/>
<ItemData ItemOID="IT.VS.VSORRES" Value="MEDIUM"/>
<ItemData ItemOID="IT.VS.VSSTRESC" Value="MEDIUM"/>
<ItemData ItemOID="IT.VS.VISITNUM" Value="1"/>
<ItemData ItemOID="IT.VS.VISIT" Value="SCREEN"/>
<ItemData ItemOID="IT.VS.VISITDY" Value="-13"/>
<ItemData ItemOID="IT.VS.VSDTC" Value="2003-09-18"/>
<ItemData ItemOID="IT.VS.VSDY" Value="-22"/>
</ItemGroupData>
<ItemGroupData ItemGroupOID="IG.VS" data:ItemGroupDataSeq="60">
<ItemData ItemOID="IT.STUDYID" Value="CDISC01"/>
<ItemData ItemOID="IT.VS.DOMAIN" Value="VS"/>
<ItemData ItemOID="IT.USUBJID" Value="CDISC01.200002"/>
<ItemData ItemOID="IT.VS.VSSEQ" Value="6"/>
<ItemData ItemOID="IT.VS.VSTESTCD" Value="HEIGHT"/>
<ItemData ItemOID="IT.VS.VSTEST" Value="Height"/>
<ItemData ItemOID="IT.VS.VSORRES" Value="65.5"/>
<ItemData ItemOID="IT.VS.VSORRESU" Value="IN"/>
<ItemData ItemOID="IT.VS.VSSTRESC" Value="166.4"/>
<ItemData ItemOID="IT.VS.VSSTRESN" Value="166.4"/>
<ItemData ItemOID="IT.VS.VSSTRESU" Value="cm"/>
<ItemData ItemOID="IT.VS.VSBLFL" Value="Y"/>
<ItemData ItemOID="IT.VS.VISITNUM" Value="1"/>
<ItemData ItemOID="IT.VS.VISIT" Value="SCREEN"/>
<ItemData ItemOID="IT.VS.VISITDY" Value="-13"/>
<ItemData ItemOID="IT.VS.VSDTC" Value="2003-09-18"/>
<ItemData ItemOID="IT.VS.VSDY" Value="-22"/>
</ItemGroupData>
<ItemGroupData ItemGroupOID="IG.VS" data:ItemGroupDataSeq="61">
<ItemData ItemOID="IT.STUDYID" Value="CDISC01"/>
<ItemData ItemOID="IT.VS.DOMAIN" Value="VS"/>
<ItemData ItemOID="IT.USUBJID" Value="CDISC01.200002"/>
<ItemData ItemOID="IT.VS.VSSEQ" Value="7"/>
<ItemData ItemOID="IT.VS.VSTESTCD" Value="PULSE"/>
<ItemData ItemOID="IT.VS.VSTEST" Value="Pulse Rate"/>
<ItemData ItemOID="IT.VS.VSORRES" Value="58"/>
<ItemData ItemOID="IT.VS.VSORRESU" Value="BEATS/MIN"/>
<ItemData ItemOID="IT.VS.VSSTRESC" Value="58"/>
<ItemData ItemOID="IT.VS.VSSTRESN" Value="58"/>
<ItemData ItemOID="IT.VS.VSSTRESU" Value="BEATS/MIN"/>
<ItemData ItemOID="IT.VS.VISITNUM" Value="1"/>
<ItemData ItemOID="IT.VS.VISIT" Value="SCREEN"/>
<ItemData ItemOID="IT.VS.VISITDY" Value="-13"/>
<ItemData ItemOID="IT.VS.VSDTC" Value="2003-09-18"/>
<ItemData ItemOID="IT.VS.VSDY" Value="-22"/>
</ItemGroupData>
<ItemGroupData ItemGroupOID="IG.VS" data:ItemGroupDataSeq="62">
<ItemData ItemOID="IT.STUDYID" Value="CDISC01"/>
<ItemData ItemOID="IT.VS.DOMAIN" Value="VS"/>
<ItemData ItemOID="IT.USUBJID" Value="CDISC01.200002"/>
<ItemData ItemOID="IT.VS.VSSEQ" Value="8"/>
<ItemData ItemOID="IT.VS.VSTESTCD" Value="PULSE"/>
<ItemData ItemOID="IT.VS.VSTEST" Value="Pulse Rate"/>
<ItemData ItemOID="IT.VS.VSORRES" Value="56"/>
<ItemData ItemOID="IT.VS.VSORRESU" Value="BEATS/MIN"/>
<ItemData ItemOID="IT.VS.VSSTRESC" Value="56"/>
<ItemData ItemOID="IT.VS.VSSTRESN" Value="56"/>
<ItemData ItemOID="IT.VS.VSSTRESU" Value="BEATS/MIN"/>
<ItemData ItemOID="IT.VS.VSBLFL" Value="Y"/>
<ItemData ItemOID="IT.VS.VISITNUM" Value="2"/>
<ItemData ItemOID="IT.VS.VISIT" Value="BASELINE"/>
<ItemData ItemOID="IT.VS.VISITDY" Value="1"/>
<ItemData ItemOID="IT.VS.VSDTC" Value="2003-10-10"/>
<ItemData ItemOID="IT.VS.VSDY" Value="1"/>
</ItemGroupData>
<ItemGroupData ItemGroupOID="IG.VS" data:ItemGroupDataSeq="63">
<ItemData ItemOID="IT.STUDYID" Value="CDISC01"/>
<ItemData ItemOID="IT.VS.DOMAIN" Value="VS"/>
<ItemData ItemOID="IT.USUBJID" Value="CDISC01.200002"/>
<ItemData ItemOID="IT.VS.VSSEQ" Value="9"/>
<ItemData ItemOID="IT.VS.VSTESTCD" Value="PULSE"/>
<ItemData ItemOID="IT.VS.VSTEST" Value="Pulse Rate"/>
<ItemData ItemOID="IT.VS.VSORRES" Value="70"/>
<ItemData ItemOID="IT.VS.VSORRESU" Value="BEATS/MIN"/>
<ItemData ItemOID="IT.VS.VSSTRESC" Value="70"/>
<ItemData ItemOID="IT.VS.VSSTRESN" Value="70"/>
<ItemData ItemOID="IT.VS.VSSTRESU" Value="BEATS/MIN"/>
<ItemData ItemOID="IT.VS.VISITNUM" Value="3"/>
<ItemData ItemOID="IT.VS.VISIT" Value="WEEK 2"/>
<ItemData ItemOID="IT.VS.VISITDY" Value="15"/>
<ItemData ItemOID="IT.VS.VSDTC" Value="2003-10-24"/>
<ItemData ItemOID="IT.VS.VSDY" Value="15"/>
</ItemGroupData>
<ItemGroupData ItemGroupOID="IG.VS" data:ItemGroupDataSeq="64">
<ItemData ItemOID="IT.STUDYID" Value="CDISC01"/>
<ItemData ItemOID="IT.VS.DOMAIN" Value="VS"/>
<ItemData ItemOID="IT.USUBJID" Value="CDISC01.200002"/>
<ItemData ItemOID="IT.VS.VSSEQ" Value="10"/>
<ItemData ItemOID="IT.VS.VSTESTCD" Value="PULSE"/>
<ItemData ItemOID="IT.VS.VSTEST" Value="Pulse Rate"/>
<ItemData ItemOID="IT.VS.VSORRES" Value="60"/>
<ItemData ItemOID="IT.VS.VSORRESU" Value="BEATS/MIN"/>
<ItemData ItemOID="IT.VS.VSSTRESC" Value="60"/>
<ItemData ItemOID="IT.VS.VSSTRESN" Value="60"/>
<ItemData ItemOID="IT.VS.VSSTRESU" Value="BEATS/MIN"/>
<ItemData ItemOID="IT.VS.VISITNUM" Value="10"/>
<ItemData ItemOID="IT.VS.VISIT" Value="WEEK 24"/>
<ItemData ItemOID="IT.VS.VISITDY" Value="169"/>
<ItemData ItemOID="IT.VS.VSDTC" Value="2004-03-29"/>
<ItemData ItemOID="IT.VS.VSDY" Value="172"/>
</ItemGroupData>
<ItemGroupData ItemGroupOID="IG.VS" data:ItemGroupDataSeq="65">
<ItemData ItemOID="IT.STUDYID" Value="CDISC01"/>
<ItemData ItemOID="IT.VS.DOMAIN" Value="VS"/>
<ItemData ItemOID="IT.USUBJID" Value="CDISC01.200002"/>
<ItemData ItemOID="IT.VS.VSSEQ" Value="11"/>
<ItemData ItemOID="IT.VS.VSTESTCD" Value="SYSBP"/>
<ItemData ItemOID="IT.VS.VSTEST" Value="Systolic Blood Pressure"/>
<ItemData ItemOID="IT.VS.VSPOS" Value="SITTING"/>
<ItemData ItemOID="IT.VS.VSORRES" Value="142"/>
<ItemData ItemOID="IT.VS.VSORRESU" Value="mmHg"/>
<ItemData ItemOID="IT.VS.VSSTRESC" Value="142"/>
<ItemData ItemOID="IT.VS.VSSTRESN" Value="142"/>
<ItemData ItemOID="IT.VS.VSSTRESU" Value="mmHg"/>
<ItemData ItemOID="IT.VS.VISITNUM" Value="1"/>
<ItemData ItemOID="IT.VS.VISIT" Value="SCREEN"/>
<ItemData ItemOID="IT.VS.VISITDY" Value="-13"/>
<ItemData ItemOID="IT.VS.VSDTC" Value="2003-09-18"/>
<ItemData ItemOID="IT.VS.VSDY" Value="-22"/>
</ItemGroupData>
<ItemGroupData ItemGroupOID="IG.VS" data:ItemGroupDataSeq="66">
<ItemData ItemOID="IT.STUDYID" Value="CDISC01"/>
<ItemData ItemOID="IT.VS.DOMAIN" Value="VS"/>
<ItemData ItemOID="IT.USUBJID" Value="CDISC01.200002"/>
<ItemData ItemOID="IT.VS.VSSEQ" Value="12"/>
<ItemData ItemOID="IT.VS.VSTESTCD" Value="SYSBP"/>
<ItemData ItemOID="IT.VS.VSTEST" Value="Systolic Blood Pressure"/>
<ItemData ItemOID="IT.VS.VSPOS" Value="SITTING"/>
<ItemData ItemOID="IT.VS.VSORRES" Value="142"/>
<ItemData ItemOID="IT.VS.VSORRESU" Value="mmHg"/>
<ItemData ItemOID="IT.VS.VSSTRESC" Value="142"/>
<ItemData ItemOID="IT.VS.VSSTRESN" Value="142"/>
<ItemData ItemOID="IT.VS.VSSTRESU" Value="mmHg"/>
<ItemData ItemOID="IT.VS.VSBLFL" Value="Y"/>
<ItemData ItemOID="IT.VS.VISITNUM" Value="2"/>
<ItemData ItemOID="IT.VS.VISIT" Value="BASELINE"/>
<ItemData ItemOID="IT.VS.VISITDY" Value="1"/>
<ItemData ItemOID="IT.VS.VSDTC" Value="2003-10-10"/>
<ItemData ItemOID="IT.VS.VSDY" Value="1"/>
</ItemGroupData>
<ItemGroupData ItemGroupOID="IG.VS" data:ItemGroupDataSeq="67">
<ItemData ItemOID="IT.STUDYID" Value="CDISC01"/>
<ItemData ItemOID="IT.VS.DOMAIN" Value="VS"/>
<ItemData ItemOID="IT.USUBJID" Value="CDISC01.200002"/>
<ItemData ItemOID="IT.VS.VSSEQ" Value="13"/>
<ItemData ItemOID="IT.VS.VSTESTCD" Value="SYSBP"/>
<ItemData ItemOID="IT.VS.VSTEST" Value="Systolic Blood Pressure"/>
<ItemData ItemOID="IT.VS.VSPOS" Value="SITTING"/>
<ItemData ItemOID="IT.VS.VSORRES" Value="160"/>
<ItemData ItemOID="IT.VS.VSORRESU" Value="mmHg"/>
<ItemData ItemOID="IT.VS.VSSTRESC" Value="160"/>
<ItemData ItemOID="IT.VS.VSSTRESN" Value="160"/>
<ItemData ItemOID="IT.VS.VSSTRESU" Value="mmHg"/>
<ItemData ItemOID="IT.VS.VISITNUM" Value="3"/>
<ItemData ItemOID="IT.VS.VISIT" Value="WEEK 2"/>
<ItemData ItemOID="IT.VS.VISITDY" Value="15"/>
<ItemData ItemOID="IT.VS.VSDTC" Value="2003-10-24"/>
<ItemData ItemOID="IT.VS.VSDY" Value="15"/>
</ItemGroupData>
<ItemGroupData ItemGroupOID="IG.VS" data:ItemGroupDataSeq="68">
<ItemData ItemOID="IT.STUDYID" Value="CDISC01"/>
<ItemData ItemOID="IT.VS.DOMAIN" Value="VS"/>
<ItemData ItemOID="IT.USUBJID" Value="CDISC01.200002"/>
<ItemData ItemOID="IT.VS.VSSEQ" Value="14"/>
<ItemData ItemOID="IT.VS.VSTESTCD" Value="SYSBP"/>
<ItemData ItemOID="IT.VS.VSTEST" Value="Systolic Blood Pressure"/>
<ItemData ItemOID="IT.VS.VSPOS" Value="SITTING"/>
<ItemData ItemOID="IT.VS.VSORRES" Value="142"/>
<ItemData ItemOID="IT.VS.VSORRESU" Value="mmHg"/>
<ItemData ItemOID="IT.VS.VSSTRESC" Value="142"/>
<ItemData ItemOID="IT.VS.VSSTRESN" Value="142"/>
<ItemData ItemOID="IT.VS.VSSTRESU" Value="mmHg"/>
<ItemData ItemOID="IT.VS.VISITNUM" Value="10"/>
<ItemData ItemOID="IT.VS.VISIT" Value="WEEK 24"/>
<ItemData ItemOID="IT.VS.VISITDY" Value="169"/>
<ItemData ItemOID="IT.VS.VSDTC" Value="2004-03-29"/>
<ItemData ItemOID="IT.VS.VSDY" Value="172"/>
</ItemGroupData>
<ItemGroupData ItemGroupOID="IG.VS" data:ItemGroupDataSeq="69">
<ItemData ItemOID="IT.STUDYID" Value="CDISC01"/>
<ItemData ItemOID="IT.VS.DOMAIN" Value="VS"/>
<ItemData ItemOID="IT.USUBJID" Value="CDISC01.200002"/>
<ItemData ItemOID="IT.VS.VSSEQ" Value="15"/>
<ItemData ItemOID="IT.VS.VSTESTCD" Value="WEIGHT"/>
<ItemData ItemOID="IT.VS.VSTEST" Value="Weight"/>
<ItemData ItemOID="IT.VS.VSORRES" Value="123.5"/>
<ItemData ItemOID="IT.VS.VSORRESU" Value="LB"/>
<ItemData ItemOID="IT.VS.VSSTRESC" Value="56"/>
<ItemData ItemOID="IT.VS.VSSTRESN" Value="56"/>
<ItemData ItemOID="IT.VS.VSSTRESU" Value="kg"/>
<ItemData ItemOID="IT.VS.VISITNUM" Value="1"/>
<ItemData ItemOID="IT.VS.VISIT" Value="SCREEN"/>
<ItemData ItemOID="IT.VS.VISITDY" Value="-13"/>
<ItemData ItemOID="IT.VS.VSDTC" Value="2003-09-18"/>
<ItemData ItemOID="IT.VS.VSDY" Value="-22"/>
</ItemGroupData>
<ItemGroupData ItemGroupOID="IG.VS" data:ItemGroupDataSeq="70">
<ItemData ItemOID="IT.STUDYID" Value="CDISC01"/>
<ItemData ItemOID="IT.VS.DOMAIN" Value="VS"/>
<ItemData ItemOID="IT.USUBJID" Value="CDISC01.200002"/>
<ItemData ItemOID="IT.VS.VSSEQ" Value="16"/>
<ItemData ItemOID="IT.VS.VSTESTCD" Value="WEIGHT"/>
<ItemData ItemOID="IT.VS.VSTEST" Value="Weight"/>
<ItemData ItemOID="IT.VS.VSORRES" Value="130"/>
<ItemData ItemOID="IT.VS.VSORRESU" Value="LB"/>
<ItemData ItemOID="IT.VS.VSSTRESC" Value="59"/>
<ItemData ItemOID="IT.VS.VSSTRESN" Value="59"/>
<ItemData ItemOID="IT.VS.VSSTRESU" Value="kg"/>
<ItemData ItemOID="IT.VS.VSBLFL" Value="Y"/>
<ItemData ItemOID="IT.VS.VISITNUM" Value="2"/>
<ItemData ItemOID="IT.VS.VISIT" Value="BASELINE"/>
<ItemData ItemOID="IT.VS.VISITDY" Value="1"/>
<ItemData ItemOID="IT.VS.VSDTC" Value="2003-10-10"/>
<ItemData ItemOID="IT.VS.VSDY" Value="1"/>
</ItemGroupData>
<ItemGroupData ItemGroupOID="IG.VS" data:ItemGroupDataSeq="71">
<ItemData ItemOID="IT.STUDYID" Value="CDISC01"/>
<ItemData ItemOID="IT.VS.DOMAIN" Value="VS"/>
<ItemData ItemOID="IT.USUBJID" Value="CDISC01.200002"/>
<ItemData ItemOID="IT.VS.VSSEQ" Value="17"/>
<ItemData ItemOID="IT.VS.VSTESTCD" Value="WEIGHT"/>
<ItemData ItemOID="IT.VS.VSTEST" Value="Weight"/>
<ItemData ItemOID="IT.VS.VSORRES" Value="131"/>
<ItemData ItemOID="IT.VS.VSORRESU" Value="LB"/>
<ItemData ItemOID="IT.VS.VSSTRESC" Value="59.4"/>
<ItemData ItemOID="IT.VS.VSSTRESN" Value="59.4"/>
<ItemData ItemOID="IT.VS.VSSTRESU" Value="kg"/>
<ItemData ItemOID="IT.VS.VISITNUM" Value="3"/>
<ItemData ItemOID="IT.VS.VISIT" Value="WEEK 2"/>
<ItemData ItemOID="IT.VS.VISITDY" Value="15"/>
<ItemData ItemOID="IT.VS.VSDTC" Value="2003-10-24"/>
<ItemData ItemOID="IT.VS.VSDY" Value="15"/>
</ItemGroupData>
<ItemGroupData ItemGroupOID="IG.VS" data:ItemGroupDataSeq="72">
<ItemData ItemOID="IT.STUDYID" Value="CDISC01"/>
<ItemData ItemOID="IT.VS.DOMAIN" Value="VS"/>
<ItemData ItemOID="IT.USUBJID" Value="CDISC01.200002"/>
<ItemData ItemOID="IT.VS.VSSEQ" Value="18"/>
<ItemData ItemOID="IT.VS.VSTESTCD" Value="WEIGHT"/>
<ItemData ItemOID="IT.VS.VSTEST" Value="Weight"/>
<ItemData ItemOID="IT.VS.VSORRES" Value="128"/>
<ItemData ItemOID="IT.VS.VSORRESU" Value="LB"/>
<ItemData ItemOID="IT.VS.VSSTRESC" Value="58.1"/>
<ItemData ItemOID="IT.VS.VSSTRESN" Value="58.1"/>
<ItemData ItemOID="IT.VS.VSSTRESU" Value="kg"/>
<ItemData ItemOID="IT.VS.VISITNUM" Value="10"/>
<ItemData ItemOID="IT.VS.VISIT" Value="WEEK 24"/>
<ItemData ItemOID="IT.VS.VISITDY" Value="169"/>
<ItemData ItemOID="IT.VS.VSDTC" Value="2004-03-29"/>
<ItemData ItemOID="IT.VS.VSDY" Value="172"/>
</ItemGroupData>
</ClinicalData>
</ODM>
