USUBJID,VISITNUM,AVISITN,STUDYID,DOMAIN,SITEID,SITEGRP,SUBJID,AVISITC,VISIT,AVISITCD,ANLDY,QSDY,VISITDY,AWEEK,VISITDT,QSDTC,ITYPE,ITTV,PARAM,PARAMCD,VAL,TRTP,TRTPCD,TRTPN,TRTDOSE,AGE,AGEGRP,AGEGRPN,SEX,SAFETY,ITT,EFFICACY,COMPLT24,COMPLT16,COMPLT8,ONTRTFL,TRTSTDT,LSTDOSDT,ADD_REC,AFLNOBS,AFLNELIG,AFLNWIN,AFLNLOCF
01-701-1015,8.0,8.0,CDISCPILOT01,ADQSCIBC,701,701,1015,WEEK 8,WEEK 8,Wk8,63.0,63.0,56.0,8.0,2014-03-05,2014-03-05,,Y,CIBIC Score,CIBICVAL,4.0,Placebo,Pbo,0.0,0.0,63.0,<65,1.0,F,Y,Y,Y,Y,Y,Y,Y,2014-01-02,2014-07-02,,1.0,1.0,1.0,1.0
01-701-1015,10.0,10.0,CDISCPILOT01,ADQSCIBC,701,701,1015,WEEK 16,WEEK 16,Wk16,126.0,126.0,112.0,16.0,2014-05-07,2014-05-07,,Y,CIBIC Score,CIBICVAL,4.0,Placebo,Pbo,0.0,0.0,63.0,<65,1.0,F,Y,Y,Y,Y,Y,Y,Y,2014-01-02,2014-07-02,,1.0,1.0,1.0,1.0
01-701-1015,12.0,12.0,CDISCPILOT01,ADQSCIBC,701,701,1015,WEEK 24,WEEK 24,Wk24,168.0,168.0,168.0,24.0,2014-06-18,2014-06-18,,Y,CIBIC Score,CIBICVAL,4.0,Placebo,Pbo,0.0,0.0,63.0,<65,1.0,F,Y,Y,Y,Y,Y,Y,Y,2014-01-02,2014-07-02,,1.0,1.0,1.0,1.0
01-701-1023,5.0,,CDISCPILOT01,ADQSCIBC,701,701,1023,WEEK 4,WEEK 4,,29.0,29.0,28.0,,2012-09-02,2012-09-02,,N,CIBIC Score,CIBICVAL,3.0,Placebo,Pbo,0.0,0.0,64.0,<65,1.0,M,Y,Y,Y,N,N,N,N,2012-08-05,2012-09-01,,1.0,,,
01-701-1023,5.0,8.0,CDISCPILOT01,ADQSCIBC,701,701,1023,WEEK 8,WEEK 4,Wk8,29.0,29.0,28.0,8.0,2012-09-02,2012-09-02,,Y,CIBIC Score,CIBICVAL,3.0,Placebo,Pbo,0.0,0.0,64.0,<65,1.0,M,Y,Y,Y,N,N,N,N,2012-08-05,2012-09-01,Y,,,1.0,1.0
01-701-1023,5.0,10.0,CDISCPILOT01,ADQSCIBC,701,701,1023,WEEK 16,WEEK 4,Wk16,29.0,29.0,28.0,16.0,2012-09-02,2012-09-02,LOCF,Y,CIBIC Score,CIBICVAL,3.0,Placebo,Pbo,0.0,0.0,64.0,<65,1.0,M,Y,Y,Y,N,N,N,N,2012-08-05,2012-09-01,Y,,,,1.0
01-701-1023,201.0,201.0,CDISCPILOT01,ADQSCIBC,701,701,1023,RETRIEVAL,RETRIEVAL,Wk24,198.0,198.0,168.0,24.0,2013-02-18,2013-02-18,,Y,CIBIC Score,CIBICVAL,5.0,Placebo,Pbo,0.0,0.0,64.0,<65,1.0,M,Y,Y,Y,N,N,N,N,2012-08-05,2012-09-01,,1.0,1.0,1.0,1.0
01-701-1028,8.0,8.0,CDISCPILOT01,ADQSCIBC,701,701,1028,WEEK 8,WEEK 8,Wk8,54.0,54.0,56.0,8.0,2013-09-10,2013-09-10,,Y,CIBIC Score,CIBICVAL,4.0,Xanomeline High Dose,Xan_Hi,2.0,81.0,71.0,65-80,2.0,M,Y,Y,Y,Y,Y,Y,Y,2013-07-19,2014-01-14,,1.0,1.0,1.0,1.0
01-701-1028,10.0,10.0,CDISCPILOT01,ADQSCIBC,701,701,1028,WEEK 16,WEEK 16,Wk16,111.0,111.0,112.0,16.0,2013-11-06,2013-11-06,,Y,CIBIC Score,CIBICVAL,4.0,Xanomeline High Dose,Xan_Hi,2.0,81.0,71.0,65-80,2.0,M,Y,Y,Y,Y,Y,Y,Y,2013-07-19,2014-01-14,,1.0,1.0,1.0,1.0
01-701-1028,12.0,12.0,CDISCPILOT01,ADQSCIBC,701,701,1028,WEEK 24,WEEK 24,Wk24,172.0,172.0,168.0,24.0,2014-01-06,2014-01-06,,Y,CIBIC Score,CIBICVAL,4.0,Xanomeline High Dose,Xan_Hi,2.0,81.0,71.0,65-80,2.0,M,Y,Y,Y,Y,Y,Y,Y,2013-07-19,2014-01-14,,1.0,1.0,1.0,1.0
01-701-1033,5.0,,CDISCPILOT01,ADQSCIBC,701,701,1033,WEEK 4,WEEK 4,,28.0,28.0,28.0,,2014-04-14,2014-04-14,,N,CIBIC Score,CIBICVAL,4.0,Xanomeline Low Dose,Xan_Lo,1.0,54.0,74.0,65-80,2.0,M,Y,Y,Y,N,N,N,N,2014-03-18,2014-03-31,,1.0,,,
01-701-1033,5.0,8.0,CDISCPILOT01,ADQSCIBC,701,701,1033,WEEK 8,WEEK 4,Wk8,28.0,28.0,28.0,8.0,2014-04-14,2014-04-14,,Y,CIBIC Score,CIBICVAL,4.0,Xanomeline Low Dose,Xan_Lo,1.0,54.0,74.0,65-80,2.0,M,Y,Y,Y,N,N,N,N,2014-03-18,2014-03-31,Y,,,1.0,1.0
01-701-1033,5.0,10.0,CDISCPILOT01,ADQSCIBC,701,701,1033,WEEK 16,WEEK 4,Wk16,28.0,28.0,28.0,16.0,2014-04-14,2014-04-14,LOCF,Y,CIBIC Score,CIBICVAL,4.0,Xanomeline Low Dose,Xan_Lo,1.0,54.0,74.0,65-80,2.0,M,Y,Y,Y,N,N,N,N,2014-03-18,2014-03-31,Y,,,,1.0
01-701-1033,201.0,201.0,CDISCPILOT01,ADQSCIBC,701,701,1033,RETRIEVAL,RETRIEVAL,Wk24,182.0,182.0,168.0,24.0,2014-09-15,2014-09-15,,Y,CIBIC Score,CIBICVAL,4.0,Xanomeline Low Dose,Xan_Lo,1.0,54.0,74.0,65-80,2.0,M,Y,Y,Y,N,N,N,N,2014-03-18,2014-03-31,,1.0,1.0,1.0,1.0
01-701-1034,8.0,8.0,CDISCPILOT01,ADQSCIBC,701,701,1034,WEEK 8,WEEK 8,Wk8,57.0,57.0,56.0,8.0,2014-08-26,2014-08-26,,Y,CIBIC Score,CIBICVAL,4.0,Xanomeline High Dose,Xan_Hi,2.0,81.0,77.0,65-80,2.0,F,Y,Y,Y,Y,Y,Y,Y,2014-07-01,2014-12-30,,1.0,1.0,1.0,1.0
01-701-1034,10.0,10.0,CDISCPILOT01,ADQSCIBC,701,701,1034,WEEK 16,WEEK 16,Wk16,113.0,113.0,112.0,16.0,2014-10-21,2014-10-21,,Y,CIBIC Score,CIBICVAL,3.0,Xanomeline High Dose,Xan_Hi,2.0,81.0,77.0,65-80,2.0,F,Y,Y,Y,Y,Y,Y,Y,2014-07-01,2014-12-30,,1.0,1.0,1.0,1.0
01-701-1034,12.0,12.0,CDISCPILOT01,ADQSCIBC,701,701,1034,WEEK 24,WEEK 24,Wk24,170.0,170.0,168.0,24.0,2014-12-17,2014-12-17,,Y,CIBIC Score,CIBICVAL,4.0,Xanomeline High Dose,Xan_Hi,2.0,81.0,77.0,65-80,2.0,F,Y,Y,Y,Y,Y,Y,Y,2014-07-01,2014-12-30,,1.0,1.0,1.0,1.0
01-701-1047,6.0,,CDISCPILOT01,ADQSCIBC,701,701,1047,AMBUL ECG REMOVAL,AMBUL ECG REMOVAL,,46.0,46.0,30.0,,2013-03-29,2013-03-29,,N,CIBIC Score,CIBICVAL,4.0,Placebo,Pbo,0.0,0.0,85.0,>80,3.0,F,Y,Y,Y,N,N,N,N,2013-02-12,2013-03-09,,1.0,,,
01-701-1047,6.0,8.0,CDISCPILOT01,ADQSCIBC,701,701,1047,WEEK 8,AMBUL ECG REMOVAL,Wk8,46.0,46.0,30.0,8.0,2013-03-29,2013-03-29,,Y,CIBIC Score,CIBICVAL,4.0,Placebo,Pbo,0.0,0.0,85.0,>80,3.0,F,Y,Y,Y,N,N,N,N,2013-02-12,2013-03-09,Y,,,1.0,1.0
01-701-1047,6.0,10.0,CDISCPILOT01,ADQSCIBC,701,701,1047,WEEK 16,AMBUL ECG REMOVAL,Wk16,46.0,46.0,30.0,16.0,2013-03-29,2013-03-29,LOCF,Y,CIBIC Score,CIBICVAL,4.0,Placebo,Pbo,0.0,0.0,85.0,>80,3.0,F,Y,Y,Y,N,N,N,N,2013-02-12,2013-03-09,Y,,,,1.0
01-701-1047,201.0,201.0,CDISCPILOT01,ADQSCIBC,701,701,1047,RETRIEVAL,RETRIEVAL,Wk24,167.0,167.0,168.0,24.0,2013-07-28,2013-07-28,,Y,CIBIC Score,CIBICVAL,5.0,Placebo,Pbo,0.0,0.0,85.0,>80,3.0,F,Y,Y,Y,N,N,N,N,2013-02-12,2013-03-09,,1.0,1.0,1.0,1.0
01-701-1097,8.0,8.0,CDISCPILOT01,ADQSCIBC,701,701,1097,WEEK 8,WEEK 8,Wk8,57.0,57.0,56.0,8.0,2014-02-26,2014-02-26,,Y,CIBIC Score,CIBICVAL,3.0,Xanomeline Low Dose,Xan_Lo,1.0,54.0,68.0,65-80,2.0,M,Y,Y,Y,Y,Y,Y,Y,2014-01-01,2014-07-09,,1.0,1.0,1.0,1.0
01-701-1097,10.0,10.0,CDISCPILOT01,ADQSCIBC,701,701,1097,WEEK 16,WEEK 16,Wk16,113.0,113.0,112.0,16.0,2014-04-23,2014-04-23,,Y,CIBIC Score,CIBICVAL,4.0,Xanomeline Low Dose,Xan_Lo,1.0,54.0,68.0,65-80,2.0,M,Y,Y,Y,Y,Y,Y,Y,2014-01-01,2014-07-09,,1.0,1.0,1.0,1.0
01-701-1097,12.0,12.0,CDISCPILOT01,ADQSCIBC,701,701,1097,WEEK 24,WEEK 24,Wk24,169.0,169.0,168.0,24.0,2014-06-18,2014-06-18,,Y,CIBIC Score,CIBICVAL,3.0,Xanomeline Low Dose,Xan_Lo,1.0,54.0,68.0,65-80,2.0,M,Y,Y,Y,Y,Y,Y,Y,2014-01-01,2014-07-09,,1.0,1.0,1.0,1.0
01-701-1111,4.0,,CDISCPILOT01,ADQSCIBC,701,701,1111,WEEK 2,WEEK 2,,11.0,11.0,14.0,,2012-09-17,2012-09-17,,N,CIBIC Score,CIBICVAL,4.0,Xanomeline Low Dose,Xan_Lo,1.0,54.0,81.0,>80,3.0,F,Y,Y,Y,N,N,N,N,2012-09-07,2012-09-16,,1.0,,,
01-701-1111,4.0,8.0,CDISCPILOT01,ADQSCIBC,701,701,1111,WEEK 8,WEEK 2,Wk8,11.0,11.0,14.0,8.0,2012-09-17,2012-09-17,,Y,CIBIC Score,CIBICVAL,4.0,Xanomeline Low Dose,Xan_Lo,1.0,54.0,81.0,>80,3.0,F,Y,Y,Y,N,N,N,N,2012-09-07,2012-09-16,Y,,,1.0,1.0
01-701-1111,4.0,10.0,CDISCPILOT01,ADQSCIBC,701,701,1111,WEEK 16,WEEK 2,Wk16,11.0,11.0,14.0,16.0,2012-09-17,2012-09-17,LOCF,Y,CIBIC Score,CIBICVAL,4.0,Xanomeline Low Dose,Xan_Lo,1.0,54.0,81.0,>80,3.0,F,Y,Y,Y,N,N,N,N,2012-09-07,2012-09-16,Y,,,,1.0
01-701-1111,201.0,201.0,CDISCPILOT01,ADQSCIBC,701,701,1111,RETRIEVAL,RETRIEVAL,Wk24,169.0,169.0,168.0,24.0,2013-02-22,2013-02-22,,Y,CIBIC Score,CIBICVAL,5.0,Xanomeline Low Dose,Xan_Lo,1.0,54.0,81.0,>80,3.0,F,Y,Y,Y,N,N,N,N,2012-09-07,2012-09-16,,1.0,1.0,1.0,1.0
01-701-1115,8.0,8.0,CDISCPILOT01,ADQSCIBC,701,701,1115,WEEK 8,WEEK 8,Wk8,55.0,55.0,56.0,8.0,2013-01-23,2013-01-23,,Y,CIBIC Score,CIBICVAL,4.0,Xanomeline Low Dose,Xan_Lo,1.0,54.0,84.0,>80,3.0,M,Y,Y,Y,N,N,Y,Y,2012-11-30,2013-01-23,,1.0,1.0,1.0,1.0
01-701-1115,8.0,10.0,CDISCPILOT01,ADQSCIBC,701,701,1115,WEEK 16,WEEK 8,Wk16,55.0,55.0,56.0,16.0,2013-01-23,2013-01-23,LOCF,Y,CIBIC Score,CIBICVAL,4.0,Xanomeline Low Dose,Xan_Lo,1.0,54.0,84.0,>80,3.0,M,Y,Y,Y,N,N,Y,Y,2012-11-30,2013-01-23,Y,,,,1.0
01-701-1115,201.0,201.0,CDISCPILOT01,ADQSCIBC,701,701,1115,RETRIEVAL,RETRIEVAL,Wk24,172.0,172.0,168.0,24.0,2013-05-20,2013-05-20,,Y,CIBIC Score,CIBICVAL,5.0,Xanomeline Low Dose,Xan_Lo,1.0,54.0,84.0,>80,3.0,M,Y,Y,Y,N,N,Y,N,2012-11-30,2013-01-23,,1.0,1.0,1.0,1.0
01-701-1118,8.0,8.0,CDISCPILOT01,ADQSCIBC,701,701,1118,WEEK 8,WEEK 8,Wk8,58.0,58.0,56.0,8.0,2014-05-08,2014-05-08,,Y,CIBIC Score,CIBICVAL,4.0,Placebo,Pbo,0.0,0.0,52.0,<65,1.0,M,Y,Y,Y,Y,Y,Y,Y,2014-03-12,2014-09-09,,1.0,1.0,1.0,1.0
01-701-1118,10.0,10.0,CDISCPILOT01,ADQSCIBC,701,701,1118,WEEK 16,WEEK 16,Wk16,113.0,113.0,112.0,16.0,2014-07-02,2014-07-02,,Y,CIBIC Score,CIBICVAL,4.0,Placebo,Pbo,0.0,0.0,52.0,<65,1.0,M,Y,Y,Y,Y,Y,Y,Y,2014-03-12,2014-09-09,,1.0,1.0,1.0,1.0
01-701-1118,12.0,12.0,CDISCPILOT01,ADQSCIBC,701,701,1118,WEEK 24,WEEK 24,Wk24,169.0,169.0,168.0,24.0,2014-08-27,2014-08-27,,Y,CIBIC Score,CIBICVAL,4.0,Placebo,Pbo,0.0,0.0,52.0,<65,1.0,M,Y,Y,Y,Y,Y,Y,Y,2014-03-12,2014-09-09,,1.0,1.0,1.0,1.0
01-701-1130,8.0,8.0,CDISCPILOT01,ADQSCIBC,701,701,1130,WEEK 8,WEEK 8,Wk8,57.0,57.0,56.0,8.0,2014-04-12,2014-04-12,,Y,CIBIC Score,CIBICVAL,3.0,Placebo,Pbo,0.0,0.0,84.0,>80,3.0,M,Y,Y,Y,Y,Y,Y,Y,2014-02-15,2014-08-16,,1.0,1.0,1.0,1.0
01-701-1130,10.0,10.0,CDISCPILOT01,ADQSCIBC,701,701,1130,WEEK 16,WEEK 16,Wk16,113.0,113.0,112.0,16.0,2014-06-07,2014-06-07,,Y,CIBIC Score,CIBICVAL,3.0,Placebo,Pbo,0.0,0.0,84.0,>80,3.0,M,Y,Y,Y,Y,Y,Y,Y,2014-02-15,2014-08-16,,1.0,1.0,1.0,1.0
01-701-1130,12.0,12.0,CDISCPILOT01,ADQSCIBC,701,701,1130,WEEK 24,WEEK 24,Wk24,169.0,169.0,168.0,24.0,2014-08-02,2014-08-02,,Y,CIBIC Score,CIBICVAL,3.0,Placebo,Pbo,0.0,0.0,84.0,>80,3.0,M,Y,Y,Y,Y,Y,Y,Y,2014-02-15,2014-08-16,,1.0,1.0,1.0,1.0
01-701-1133,8.0,8.0,CDISCPILOT01,ADQSCIBC,701,701,1133,WEEK 8,WEEK 8,Wk8,58.0,58.0,56.0,8.0,2012-12-24,2012-12-24,,Y,CIBIC Score,CIBICVAL,4.0,Xanomeline High Dose,Xan_Hi,2.0,81.0,81.0,>80,3.0,F,Y,Y,Y,Y,Y,Y,Y,2012-10-28,2013-04-28,,1.0,1.0,1.0,1.0
01-701-1133,10.0,10.0,CDISCPILOT01,ADQSCIBC,701,701,1133,WEEK 16,WEEK 16,Wk16,114.0,114.0,112.0,16.0,2013-02-18,2013-02-18,,Y,CIBIC Score,CIBICVAL,5.0,Xanomeline High Dose,Xan_Hi,2.0,81.0,81.0,>80,3.0,F,Y,Y,Y,Y,Y,Y,Y,2012-10-28,2013-04-28,,1.0,1.0,1.0,1.0
01-701-1133,12.0,12.0,CDISCPILOT01,ADQSCIBC,701,701,1133,WEEK 24,WEEK 24,Wk24,173.0,173.0,168.0,24.0,2013-04-18,2013-04-18,,Y,CIBIC Score,CIBICVAL,5.0,Xanomeline High Dose,Xan_Hi,2.0,81.0,81.0,>80,3.0,F,Y,Y,Y,Y,Y,Y,Y,2012-10-28,2013-04-28,,1.0,1.0,1.0,1.0
01-701-1146,7.0,,CDISCPILOT01,ADQSCIBC,701,701,1146,WEEK 6,WEEK 6,,42.0,42.0,42.0,,2013-06-30,2013-06-30,,N,CIBIC Score,CIBICVAL,4.0,Xanomeline High Dose,Xan_Hi,2.0,81.0,75.0,65-80,2.0,F,Y,Y,Y,N,N,N,N,2013-05-20,2013-06-26,,1.0,,,
01-701-1146,7.0,8.0,CDISCPILOT01,ADQSCIBC,701,701,1146,WEEK 8,WEEK 6,Wk8,42.0,42.0,42.0,8.0,2013-06-30,2013-06-30,,Y,CIBIC Score,CIBICVAL,4.0,Xanomeline High Dose,Xan_Hi,2.0,81.0,75.0,65-80,2.0,F,Y,Y,Y,N,N,N,N,2013-05-20,2013-06-26,Y,,,1.0,1.0
01-701-1146,7.0,10.0,CDISCPILOT01,ADQSCIBC,701,701,1146,WEEK 16,WEEK 6,Wk16,42.0,42.0,42.0,16.0,2013-06-30,2013-06-30,LOCF,Y,CIBIC Score,CIBICVAL,4.0,Xanomeline High Dose,Xan_Hi,2.0,81.0,75.0,65-80,2.0,F,Y,Y,Y,N,N,N,N,2013-05-20,2013-06-26,Y,,,,1.0
01-701-1146,7.0,12.0,CDISCPILOT01,ADQSCIBC,701,701,1146,WEEK 24,WEEK 6,Wk24,42.0,42.0,42.0,24.0,2013-06-30,2013-06-30,LOCF,Y,CIBIC Score,CIBICVAL,4.0,Xanomeline High Dose,Xan_Hi,2.0,81.0,75.0,65-80,2.0,F,Y,Y,Y,N,N,N,N,2013-05-20,2013-06-26,Y,,,,1.0
01-701-1148,8.0,8.0,CDISCPILOT01,ADQSCIBC,701,701,1148,WEEK 8,WEEK 8,Wk8,57.0,57.0,56.0,8.0,2013-10-18,2013-10-18,,Y,CIBIC Score,CIBICVAL,5.0,Xanomeline High Dose,Xan_Hi,2.0,81.0,57.0,<65,1.0,M,Y,Y,Y,Y,Y,Y,Y,2013-08-23,2014-02-20,,1.0,1.0,1.0,1.0
01-701-1148,10.0,10.0,CDISCPILOT01,ADQSCIBC,701,701,1148,WEEK 16,WEEK 16,Wk16,113.0,113.0,112.0,16.0,2013-12-13,2013-12-13,,Y,CIBIC Score,CIBICVAL,4.0,Xanomeline High Dose,Xan_Hi,2.0,81.0,57.0,<65,1.0,M,Y,Y,Y,Y,Y,Y,Y,2013-08-23,2014-02-20,,1.0,1.0,1.0,1.0
01-701-1148,12.0,12.0,CDISCPILOT01,ADQSCIBC,701,701,1148,WEEK 24,WEEK 24,Wk24,170.0,170.0,168.0,24.0,2014-02-08,2014-02-08,,Y,CIBIC Score,CIBICVAL,5.0,Xanomeline High Dose,Xan_Hi,2.0,81.0,57.0,<65,1.0,M,Y,Y,Y,Y,Y,Y,Y,2013-08-23,2014-02-20,,1.0,1.0,1.0,1.0
01-701-1153,8.0,8.0,CDISCPILOT01,ADQSCIBC,701,701,1153,WEEK 8,WEEK 8,Wk8,57.0,57.0,56.0,8.0,2013-11-18,2013-11-18,,Y,CIBIC Score,CIBICVAL,4.0,Placebo,Pbo,0.0,0.0,79.0,65-80,2.0,F,Y,Y,Y,Y,Y,Y,Y,2013-09-23,2014-03-16,,1.0,1.0,1.0,1.0
01-701-1153,10.0,10.0,CDISCPILOT01,ADQSCIBC,701,701,1153,WEEK 16,WEEK 16,Wk16,108.0,108.0,112.0,16.0,2014-01-08,2014-01-08,,Y,CIBIC Score,CIBICVAL,4.0,Placebo,Pbo,0.0,0.0,79.0,65-80,2.0,F,Y,Y,Y,Y,Y,Y,Y,2013-09-23,2014-03-16,,1.0,1.0,1.0,1.0
01-701-1153,12.0,12.0,CDISCPILOT01,ADQSCIBC,701,701,1153,WEEK 24,WEEK 24,Wk24,170.0,170.0,168.0,24.0,2014-03-11,2014-03-11,,Y,CIBIC Score,CIBICVAL,4.0,Placebo,Pbo,0.0,0.0,79.0,65-80,2.0,F,Y,Y,Y,Y,Y,Y,Y,2013-09-23,2014-03-16,,1.0,1.0,1.0,1.0
01-701-1180,7.0,,CDISCPILOT01,ADQSCIBC,701,701,1180,WEEK 6,WEEK 6,,40.0,40.0,42.0,,2013-03-23,2013-03-23,,N,CIBIC Score,CIBICVAL,5.0,Xanomeline High Dose,Xan_Hi,2.0,81.0,56.0,<65,1.0,M,Y,Y,Y,N,N,N,N,2013-02-12,2013-03-18,,1.0,,,
01-701-1180,7.0,8.0,CDISCPILOT01,ADQSCIBC,701,701,1180,WEEK 8,WEEK 6,Wk8,40.0,40.0,42.0,8.0,2013-03-23,2013-03-23,,Y,CIBIC Score,CIBICVAL,5.0,Xanomeline High Dose,Xan_Hi,2.0,81.0,56.0,<65,1.0,M,Y,Y,Y,N,N,N,N,2013-02-12,2013-03-18,Y,,,1.0,1.0
01-701-1180,7.0,10.0,CDISCPILOT01,ADQSCIBC,701,701,1180,WEEK 16,WEEK 6,Wk16,40.0,40.0,42.0,16.0,2013-03-23,2013-03-23,LOCF,Y,CIBIC Score,CIBICVAL,5.0,Xanomeline High Dose,Xan_Hi,2.0,81.0,56.0,<65,1.0,M,Y,Y,Y,N,N,N,N,2013-02-12,2013-03-18,Y,,,,1.0
01-701-1180,7.0,12.0,CDISCPILOT01,ADQSCIBC,701,701,1180,WEEK 24,WEEK 6,Wk24,40.0,40.0,42.0,24.0,2013-03-23,2013-03-23,LOCF,Y,CIBIC Score,CIBICVAL,5.0,Xanomeline High Dose,Xan_Hi,2.0,81.0,56.0,<65,1.0,M,Y,Y,Y,N,N,N,N,2013-02-12,2013-03-18,Y,,,,1.0
01-701-1181,4.0,,CDISCPILOT01,ADQSCIBC,701,701,1181,WEEK 2,WEEK 2,,8.0,8.0,14.0,,2013-12-12,2013-12-12,,N,CIBIC Score,CIBICVAL,4.0,Xanomeline High Dose,Xan_Hi,2.0,81.0,79.0,65-80,2.0,F,Y,Y,Y,N,N,N,N,2013-12-05,2013-12-09,,1.0,,,
01-701-1181,4.0,8.0,CDISCPILOT01,ADQSCIBC,701,701,1181,WEEK 8,WEEK 2,Wk8,8.0,8.0,14.0,8.0,2013-12-12,2013-12-12,,Y,CIBIC Score,CIBICVAL,4.0,Xanomeline High Dose,Xan_Hi,2.0,81.0,79.0,65-80,2.0,F,Y,Y,Y,N,N,N,N,2013-12-05,2013-12-09,Y,,,1.0,1.0
01-701-1181,4.0,10.0,CDISCPILOT01,ADQSCIBC,701,701,1181,WEEK 16,WEEK 2,Wk16,8.0,8.0,14.0,16.0,2013-12-12,2013-12-12,LOCF,Y,CIBIC Score,CIBICVAL,4.0,Xanomeline High Dose,Xan_Hi,2.0,81.0,79.0,65-80,2.0,F,Y,Y,Y,N,N,N,N,2013-12-05,2013-12-09,Y,,,,1.0
01-701-1181,201.0,201.0,CDISCPILOT01,ADQSCIBC,701,701,1181,RETRIEVAL,RETRIEVAL,Wk24,170.0,170.0,168.0,24.0,2014-05-23,2014-05-23,,Y,CIBIC Score,CIBICVAL,5.0,Xanomeline High Dose,Xan_Hi,2.0,81.0,79.0,65-80,2.0,F,Y,Y,Y,N,N,N,N,2013-12-05,2013-12-09,,1.0,1.0,1.0,1.0
01-701-1188,7.0,,CDISCPILOT01,ADQSCIBC,701,701,1188,WEEK 6,WEEK 6,,39.0,39.0,42.0,,2013-03-25,2013-03-25,,N,CIBIC Score,CIBICVAL,4.0,Xanomeline Low Dose,Xan_Lo,1.0,54.0,71.0,65-80,2.0,M,Y,Y,Y,N,N,N,N,2013-02-15,2013-03-24,,1.0,,,
01-701-1188,7.0,8.0,CDISCPILOT01,ADQSCIBC,701,701,1188,WEEK 8,WEEK 6,Wk8,39.0,39.0,42.0,8.0,2013-03-25,2013-03-25,,Y,CIBIC Score,CIBICVAL,4.0,Xanomeline Low Dose,Xan_Lo,1.0,54.0,71.0,65-80,2.0,M,Y,Y,Y,N,N,N,N,2013-02-15,2013-03-24,Y,,,1.0,1.0
01-701-1188,7.0,10.0,CDISCPILOT01,ADQSCIBC,701,701,1188,WEEK 16,WEEK 6,Wk16,39.0,39.0,42.0,16.0,2013-03-25,2013-03-25,LOCF,Y,CIBIC Score,CIBICVAL,4.0,Xanomeline Low Dose,Xan_Lo,1.0,54.0,71.0,65-80,2.0,M,Y,Y,Y,N,N,N,N,2013-02-15,2013-03-24,Y,,,,1.0
01-701-1188,201.0,201.0,CDISCPILOT01,ADQSCIBC,701,701,1188,RETRIEVAL,RETRIEVAL,Wk24,171.0,171.0,168.0,24.0,2013-08-04,2013-08-04,,Y,CIBIC Score,CIBICVAL,4.0,Xanomeline Low Dose,Xan_Lo,1.0,54.0,71.0,65-80,2.0,M,Y,Y,Y,N,N,N,N,2013-02-15,2013-03-24,,1.0,1.0,1.0,1.0
01-701-1192,8.0,8.0,CDISCPILOT01,ADQSCIBC,701,701,1192,WEEK 8,WEEK 8,Wk8,64.0,64.0,56.0,8.0,2012-09-23,2012-09-23,,Y,CIBIC Score,CIBICVAL,5.0,Xanomeline Low Dose,Xan_Lo,1.0,54.0,80.0,65-80,2.0,F,Y,Y,Y,Y,Y,Y,Y,2012-07-22,2013-01-20,,1.0,1.0,1.0,1.0
01-701-1192,10.0,10.0,CDISCPILOT01,ADQSCIBC,701,701,1192,WEEK 16,WEEK 16,Wk16,117.0,117.0,112.0,16.0,2012-11-15,2012-11-15,,Y,CIBIC Score,CIBICVAL,4.0,Xanomeline Low Dose,Xan_Lo,1.0,54.0,80.0,65-80,2.0,F,Y,Y,Y,Y,Y,Y,Y,2012-07-22,2013-01-20,,1.0,1.0,1.0,1.0
01-701-1192,12.0,12.0,CDISCPILOT01,ADQSCIBC,701,701,1192,WEEK 24,WEEK 24,Wk24,174.0,174.0,168.0,24.0,2013-01-11,2013-01-11,,Y,CIBIC Score,CIBICVAL,4.0,Xanomeline Low Dose,Xan_Lo,1.0,54.0,80.0,65-80,2.0,F,Y,Y,Y,Y,Y,Y,Y,2012-07-22,2013-01-20,,1.0,1.0,1.0,1.0
01-701-1203,8.0,8.0,CDISCPILOT01,ADQSCIBC,701,701,1203,WEEK 8,WEEK 8,Wk8,57.0,57.0,56.0,8.0,2013-03-30,2013-03-30,,Y,CIBIC Score,CIBICVAL,4.0,Placebo,Pbo,0.0,0.0,81.0,>80,3.0,F,Y,Y,Y,Y,Y,Y,Y,2013-02-02,2013-08-03,,1.0,1.0,1.0,1.0
01-701-1203,10.0,10.0,CDISCPILOT01,ADQSCIBC,701,701,1203,WEEK 16,WEEK 16,Wk16,113.0,113.0,112.0,16.0,2013-05-25,2013-05-25,,Y,CIBIC Score,CIBICVAL,4.0,Placebo,Pbo,0.0,0.0,81.0,>80,3.0,F,Y,Y,Y,Y,Y,Y,Y,2013-02-02,2013-08-03,,1.0,1.0,1.0,1.0
01-701-1203,12.0,12.0,CDISCPILOT01,ADQSCIBC,701,701,1203,WEEK 24,WEEK 24,Wk24,171.0,171.0,168.0,24.0,2013-07-22,2013-07-22,,Y,CIBIC Score,CIBICVAL,4.0,Placebo,Pbo,0.0,0.0,81.0,>80,3.0,F,Y,Y,Y,Y,Y,Y,Y,2013-02-02,2013-08-03,,1.0,1.0,1.0,1.0
01-701-1211,8.0,8.0,CDISCPILOT01,ADQSCIBC,701,701,1211,WEEK 8,WEEK 8,Wk8,55.0,55.0,56.0,8.0,2013-01-08,2013-01-08,,Y,CIBIC Score,CIBICVAL,5.0,Xanomeline Low Dose,Xan_Lo,1.0,54.0,76.0,65-80,2.0,F,Y,Y,Y,N,N,Y,Y,2012-11-15,2013-01-12,,1.0,1.0,1.0,1.0
01-701-1211,8.0,10.0,CDISCPILOT01,ADQSCIBC,701,701,1211,WEEK 16,WEEK 8,Wk16,55.0,55.0,56.0,16.0,2013-01-08,2013-01-08,LOCF,Y,CIBIC Score,CIBICVAL,5.0,Xanomeline Low Dose,Xan_Lo,1.0,54.0,76.0,65-80,2.0,F,Y,Y,Y,N,N,Y,Y,2012-11-15,2013-01-12,Y,,,,1.0
01-701-1211,8.0,12.0,CDISCPILOT01,ADQSCIBC,701,701,1211,WEEK 24,WEEK 8,Wk24,55.0,55.0,56.0,24.0,2013-01-08,2013-01-08,LOCF,Y,CIBIC Score,CIBICVAL,5.0,Xanomeline Low Dose,Xan_Lo,1.0,54.0,76.0,65-80,2.0,F,Y,Y,Y,N,N,Y,Y,2012-11-15,2013-01-12,Y,,,,1.0
01-701-1234,8.0,8.0,CDISCPILOT01,ADQSCIBC,701,701,1234,WEEK 8,WEEK 8,Wk8,58.0,58.0,56.0,8.0,2013-05-26,2013-05-26,,Y,CIBIC Score,CIBICVAL,3.0,Placebo,Pbo,0.0,0.0,69.0,65-80,2.0,M,Y,Y,Y,Y,Y,Y,Y,2013-03-30,2013-09-22,,1.0,1.0,1.0,1.0
01-701-1234,10.0,10.0,CDISCPILOT01,ADQSCIBC,701,701,1234,WEEK 16,WEEK 16,Wk16,120.0,120.0,112.0,16.0,2013-07-27,2013-07-27,,Y,CIBIC Score,CIBICVAL,4.0,Placebo,Pbo,0.0,0.0,69.0,65-80,2.0,M,Y,Y,Y,Y,Y,Y,Y,2013-03-30,2013-09-22,,1.0,1.0,1.0,1.0
01-701-1234,12.0,12.0,CDISCPILOT01,ADQSCIBC,701,701,1234,WEEK 24,WEEK 24,Wk24,165.0,165.0,168.0,24.0,2013-09-10,2013-09-10,,Y,CIBIC Score,CIBICVAL,4.0,Placebo,Pbo,0.0,0.0,69.0,65-80,2.0,M,Y,Y,Y,Y,Y,Y,Y,2013-03-30,2013-09-22,,1.0,1.0,1.0,1.0
01-701-1239,8.0,8.0,CDISCPILOT01,ADQSCIBC,701,701,1239,WEEK 8,WEEK 8,Wk8,55.0,55.0,56.0,8.0,2014-03-06,2014-03-06,,Y,CIBIC Score,CIBICVAL,3.0,Xanomeline High Dose,Xan_Hi,2.0,81.0,56.0,<65,1.0,M,Y,Y,Y,Y,Y,Y,Y,2014-01-11,2014-07-10,,1.0,1.0,1.0,1.0
01-701-1239,10.0,10.0,CDISCPILOT01,ADQSCIBC,701,701,1239,WEEK 16,WEEK 16,Wk16,112.0,112.0,112.0,16.0,2014-05-02,2014-05-02,,Y,CIBIC Score,CIBICVAL,2.0,Xanomeline High Dose,Xan_Hi,2.0,81.0,56.0,<65,1.0,M,Y,Y,Y,Y,Y,Y,Y,2014-01-11,2014-07-10,,1.0,1.0,1.0,1.0
01-701-1239,12.0,12.0,CDISCPILOT01,ADQSCIBC,701,701,1239,WEEK 24,WEEK 24,Wk24,168.0,168.0,168.0,24.0,2014-06-27,2014-06-27,,Y,CIBIC Score,CIBICVAL,3.0,Xanomeline High Dose,Xan_Hi,2.0,81.0,56.0,<65,1.0,M,Y,Y,Y,Y,Y,Y,Y,2014-01-11,2014-07-10,,1.0,1.0,1.0,1.0
01-701-1275,8.0,8.0,CDISCPILOT01,ADQSCIBC,701,701,1275,WEEK 8,WEEK 8,Wk8,58.0,58.0,56.0,8.0,2014-04-05,2014-04-05,,Y,CIBIC Score,CIBICVAL,3.0,Xanomeline High Dose,Xan_Hi,2.0,81.0,61.0,<65,1.0,M,Y,Y,Y,N,Y,Y,Y,2014-02-07,2014-05-31,,1.0,1.0,1.0,1.0
01-701-1275,10.0,10.0,CDISCPILOT01,ADQSCIBC,701,701,1275,WEEK 16,WEEK 16,Wk16,128.0,128.0,112.0,16.0,2014-06-14,2014-06-14,,Y,CIBIC Score,CIBICVAL,4.0,Xanomeline High Dose,Xan_Hi,2.0,81.0,61.0,<65,1.0,M,Y,Y,Y,N,Y,Y,N,2014-02-07,2014-05-31,,1.0,1.0,1.0,1.0
01-701-1275,10.0,12.0,CDISCPILOT01,ADQSCIBC,701,701,1275,WEEK 24,WEEK 16,Wk24,128.0,128.0,112.0,24.0,2014-06-14,2014-06-14,LOCF,Y,CIBIC Score,CIBICVAL,4.0,Xanomeline High Dose,Xan_Hi,2.0,81.0,61.0,<65,1.0,M,Y,Y,Y,N,Y,Y,N,2014-02-07,2014-05-31,Y,,,,1.0
01-701-1287,8.0,8.0,CDISCPILOT01,ADQSCIBC,701,701,1287,WEEK 8,WEEK 8,Wk8,56.0,56.0,56.0,8.0,2014-03-21,2014-03-21,,Y,CIBIC Score,CIBICVAL,4.0,Xanomeline High Dose,Xan_Hi,2.0,81.0,56.0,<65,1.0,F,Y,Y,Y,Y,Y,Y,Y,2014-01-25,2014-07-26,,1.0,1.0,1.0,1.0
01-701-1287,10.0,10.0,CDISCPILOT01,ADQSCIBC,701,701,1287,WEEK 16,WEEK 16,Wk16,111.0,111.0,112.0,16.0,2014-05-15,2014-05-15,,Y,CIBIC Score,CIBICVAL,4.0,Xanomeline High Dose,Xan_Hi,2.0,81.0,56.0,<65,1.0,F,Y,Y,Y,Y,Y,Y,Y,2014-01-25,2014-07-26,,1.0,1.0,1.0,1.0
01-701-1287,12.0,12.0,CDISCPILOT01,ADQSCIBC,701,701,1287,WEEK 24,WEEK 24,Wk24,169.0,169.0,168.0,24.0,2014-07-12,2014-07-12,,Y,CIBIC Score,CIBICVAL,4.0,Xanomeline High Dose,Xan_Hi,2.0,81.0,56.0,<65,1.0,F,Y,Y,Y,Y,Y,Y,Y,2014-01-25,2014-07-26,,1.0,1.0,1.0,1.0
01-701-1294,8.0,8.0,CDISCPILOT01,ADQSCIBC,701,701,1294,WEEK 8,WEEK 8,Wk8,60.0,60.0,56.0,8.0,2013-05-22,2013-05-22,,Y,CIBIC Score,CIBICVAL,5.0,Xanomeline Low Dose,Xan_Lo,1.0,54.0,67.0,65-80,2.0,M,Y,Y,Y,N,N,Y,Y,2013-03-24,2013-06-14,,1.0,1.0,1.0,1.0
01-701-1294,8.0,10.0,CDISCPILOT01,ADQSCIBC,701,701,1294,WEEK 16,WEEK 8,Wk16,60.0,60.0,56.0,16.0,2013-05-22,2013-05-22,LOCF,Y,CIBIC Score,CIBICVAL,5.0,Xanomeline Low Dose,Xan_Lo,1.0,54.0,67.0,65-80,2.0,M,Y,Y,Y,N,N,Y,Y,2013-03-24,2013-06-14,Y,,,,1.0
01-701-1294,9.0,,CDISCPILOT01,ADQSCIBC,701,701,1294,WEEK 12,WEEK 12,,83.0,83.0,84.0,,2013-06-14,2013-06-14,,N,CIBIC Score,CIBICVAL,4.0,Xanomeline Low Dose,Xan_Lo,1.0,54.0,67.0,65-80,2.0,M,Y,Y,Y,N,N,Y,Y,2013-03-24,2013-06-14,,1.0,,,
01-701-1294,201.0,201.0,CDISCPILOT01,ADQSCIBC,701,701,1294,RETRIEVAL,RETRIEVAL,Wk24,199.0,199.0,168.0,24.0,2013-10-08,2013-10-08,,Y,CIBIC Score,CIBICVAL,5.0,Xanomeline Low Dose,Xan_Lo,1.0,54.0,67.0,65-80,2.0,M,Y,Y,Y,N,N,Y,N,2013-03-24,2013-06-14,,1.0,1.0,1.0,1.0
01-701-1302,8.0,8.0,CDISCPILOT01,ADQSCIBC,701,701,1302,WEEK 8,WEEK 8,Wk8,55.0,55.0,56.0,8.0,2013-10-22,2013-10-22,,Y,CIBIC Score,CIBICVAL,4.0,Xanomeline High Dose,Xan_Hi,2.0,81.0,61.0,<65,1.0,M,Y,Y,Y,N,N,Y,Y,2013-08-29,2013-11-05,,1.0,1.0,1.0,1.0
01-701-1302,8.0,10.0,CDISCPILOT01,ADQSCIBC,701,701,1302,WEEK 16,WEEK 8,Wk16,55.0,55.0,56.0,16.0,2013-10-22,2013-10-22,LOCF,Y,CIBIC Score,CIBICVAL,4.0,Xanomeline High Dose,Xan_Hi,2.0,81.0,61.0,<65,1.0,M,Y,Y,Y,N,N,Y,Y,2013-08-29,2013-11-05,Y,,,,1.0
01-701-1302,9.0,,CDISCPILOT01,ADQSCIBC,701,701,1302,WEEK 12,WEEK 12,,69.0,69.0,84.0,,2013-11-05,2013-11-05,,N,CIBIC Score,CIBICVAL,5.0,Xanomeline High Dose,Xan_Hi,2.0,81.0,61.0,<65,1.0,M,Y,Y,Y,N,N,Y,Y,2013-08-29,2013-11-05,,1.0,,,
01-701-1302,201.0,201.0,CDISCPILOT01,ADQSCIBC,701,701,1302,RETRIEVAL,RETRIEVAL,Wk24,169.0,169.0,168.0,24.0,2014-02-13,2014-02-13,,Y,CIBIC Score,CIBICVAL,4.0,Xanomeline High Dose,Xan_Hi,2.0,81.0,61.0,<65,1.0,M,Y,Y,Y,N,N,Y,N,2013-08-29,2013-11-05,,1.0,1.0,1.0,1.0
01-701-1317,8.0,8.0,CDISCPILOT01,ADQSCIBC,701,701,1317,WEEK 8,WEEK 8,Wk8,62.0,62.0,56.0,8.0,2014-07-22,2014-07-22,,Y,CIBIC Score,CIBICVAL,4.0,Xanomeline Low Dose,Xan_Lo,1.0,54.0,68.0,65-80,2.0,M,Y,Y,Y,Y,Y,Y,Y,2014-05-22,2014-11-20,,1.0,1.0,1.0,1.0
01-701-1317,10.0,10.0,CDISCPILOT01,ADQSCIBC,701,701,1317,WEEK 16,WEEK 16,Wk16,113.0,113.0,112.0,16.0,2014-09-11,2014-09-11,,Y,CIBIC Score,CIBICVAL,4.0,Xanomeline Low Dose,Xan_Lo,1.0,54.0,68.0,65-80,2.0,M,Y,Y,Y,Y,Y,Y,Y,2014-05-22,2014-11-20,,1.0,1.0,1.0,1.0
01-701-1317,12.0,12.0,CDISCPILOT01,ADQSCIBC,701,701,1317,WEEK 24,WEEK 24,Wk24,169.0,169.0,168.0,24.0,2014-11-06,2014-11-06,,Y,CIBIC Score,CIBICVAL,4.0,Xanomeline Low Dose,Xan_Lo,1.0,54.0,68.0,65-80,2.0,M,Y,Y,Y,Y,Y,Y,Y,2014-05-22,2014-11-20,,1.0,1.0,1.0,1.0
01-701-1324,8.0,8.0,CDISCPILOT01,ADQSCIBC,701,701,1324,WEEK 8,WEEK 8,Wk8,55.0,55.0,56.0,8.0,2012-11-25,2012-11-25,,Y,CIBIC Score,CIBICVAL,4.0,Xanomeline Low Dose,Xan_Lo,1.0,54.0,79.0,65-80,2.0,M,Y,Y,Y,Y,Y,Y,Y,2012-10-02,2013-04-02,,1.0,1.0,1.0,1.0
01-701-1324,10.0,10.0,CDISCPILOT01,ADQSCIBC,701,701,1324,WEEK 16,WEEK 16,Wk16,113.0,113.0,112.0,16.0,2013-01-22,2013-01-22,,Y,CIBIC Score,CIBICVAL,4.0,Xanomeline Low Dose,Xan_Lo,1.0,54.0,79.0,65-80,2.0,M,Y,Y,Y,Y,Y,Y,Y,2012-10-02,2013-04-02,,1.0,1.0,1.0,1.0
01-701-1324,12.0,12.0,CDISCPILOT01,ADQSCIBC,701,701,1324,WEEK 24,WEEK 24,Wk24,169.0,169.0,168.0,24.0,2013-03-19,2013-03-19,,Y,CIBIC Score,CIBICVAL,5.0,Xanomeline Low Dose,Xan_Lo,1.0,54.0,79.0,65-80,2.0,M,Y,Y,Y,Y,Y,Y,Y,2012-10-02,2013-04-02,,1.0,1.0,1.0,1.0
01-701-1341,5.0,,CDISCPILOT01,ADQSCIBC,701,701,1341,WEEK 4,WEEK 4,,34.0,34.0,28.0,,2013-02-07,2013-02-07,,N,CIBIC Score,CIBICVAL,4.0,Xanomeline Low Dose,Xan_Lo,1.0,54.0,51.0,<65,1.0,M,Y,Y,Y,N,N,N,N,2013-01-05,2013-01-26,,1.0,,,
01-701-1341,5.0,8.0,CDISCPILOT01,ADQSCIBC,701,701,1341,WEEK 8,WEEK 4,Wk8,34.0,34.0,28.0,8.0,2013-02-07,2013-02-07,,Y,CIBIC Score,CIBICVAL,4.0,Xanomeline Low Dose,Xan_Lo,1.0,54.0,51.0,<65,1.0,M,Y,Y,Y,N,N,N,N,2013-01-05,2013-01-26,Y,,,1.0,1.0
01-701-1341,5.0,10.0,CDISCPILOT01,ADQSCIBC,701,701,1341,WEEK 16,WEEK 4,Wk16,34.0,34.0,28.0,16.0,2013-02-07,2013-02-07,LOCF,Y,CIBIC Score,CIBICVAL,4.0,Xanomeline Low Dose,Xan_Lo,1.0,54.0,51.0,<65,1.0,M,Y,Y,Y,N,N,N,N,2013-01-05,2013-01-26,Y,,,,1.0
01-701-1341,5.0,12.0,CDISCPILOT01,ADQSCIBC,701,701,1341,WEEK 24,WEEK 4,Wk24,34.0,34.0,28.0,24.0,2013-02-07,2013-02-07,LOCF,Y,CIBIC Score,CIBICVAL,4.0,Xanomeline Low Dose,Xan_Lo,1.0,54.0,51.0,<65,1.0,M,Y,Y,Y,N,N,N,N,2013-01-05,2013-01-26,Y,,,,1.0
01-701-1345,8.0,8.0,CDISCPILOT01,ADQSCIBC,701,701,1345,WEEK 8,WEEK 8,Wk8,57.0,57.0,56.0,8.0,2013-12-03,2013-12-03,,Y,CIBIC Score,CIBICVAL,4.0,Placebo,Pbo,0.0,0.0,63.0,<65,1.0,F,Y,Y,Y,Y,Y,Y,Y,2013-10-08,2014-03-18,,1.0,1.0,1.0,1.0
01-701-1345,10.0,10.0,CDISCPILOT01,ADQSCIBC,701,701,1345,WEEK 16,WEEK 16,Wk16,112.0,112.0,112.0,16.0,2014-01-27,2014-01-27,,Y,CIBIC Score,CIBICVAL,5.0,Placebo,Pbo,0.0,0.0,63.0,<65,1.0,F,Y,Y,Y,Y,Y,Y,Y,2013-10-08,2014-03-18,,1.0,1.0,1.0,1.0
01-701-1345,12.0,12.0,CDISCPILOT01,ADQSCIBC,701,701,1345,WEEK 24,WEEK 24,Wk24,162.0,162.0,168.0,24.0,2014-03-18,2014-03-18,,Y,CIBIC Score,CIBICVAL,5.0,Placebo,Pbo,0.0,0.0,63.0,<65,1.0,F,Y,Y,Y,Y,Y,Y,Y,2013-10-08,2014-03-18,,1.0,1.0,1.0,1.0
01-701-1360,4.0,,CDISCPILOT01,ADQSCIBC,701,701,1360,WEEK 2,WEEK 2,,15.0,15.0,14.0,,2013-08-14,2013-08-14,,N,CIBIC Score,CIBICVAL,4.0,Xanomeline High Dose,Xan_Hi,2.0,81.0,67.0,65-80,2.0,M,Y,Y,Y,N,N,N,N,2013-07-31,2013-08-05,,1.0,,,
01-701-1360,4.0,8.0,CDISCPILOT01,ADQSCIBC,701,701,1360,WEEK 8,WEEK 2,Wk8,15.0,15.0,14.0,8.0,2013-08-14,2013-08-14,,Y,CIBIC Score,CIBICVAL,4.0,Xanomeline High Dose,Xan_Hi,2.0,81.0,67.0,65-80,2.0,M,Y,Y,Y,N,N,N,N,2013-07-31,2013-08-05,Y,,,1.0,1.0
01-701-1360,4.0,10.0,CDISCPILOT01,ADQSCIBC,701,701,1360,WEEK 16,WEEK 2,Wk16,15.0,15.0,14.0,16.0,2013-08-14,2013-08-14,LOCF,Y,CIBIC Score,CIBICVAL,4.0,Xanomeline High Dose,Xan_Hi,2.0,81.0,67.0,65-80,2.0,M,Y,Y,Y,N,N,N,N,2013-07-31,2013-08-05,Y,,,,1.0
01-701-1360,201.0,201.0,CDISCPILOT01,ADQSCIBC,701,701,1360,RETRIEVAL,RETRIEVAL,Wk24,196.0,196.0,168.0,24.0,2014-02-11,2014-02-11,,Y,CIBIC Score,CIBICVAL,4.0,Xanomeline High Dose,Xan_Hi,2.0,81.0,67.0,65-80,2.0,M,Y,Y,Y,N,N,N,N,2013-07-31,2013-08-05,,1.0,1.0,1.0,1.0
01-701-1363,8.0,8.0,CDISCPILOT01,ADQSCIBC,701,701,1363,WEEK 8,WEEK 8,Wk8,56.0,56.0,56.0,8.0,2013-07-24,2013-07-24,,Y,CIBIC Score,CIBICVAL,5.0,Placebo,Pbo,0.0,0.0,81.0,>80,3.0,F,Y,Y,Y,Y,Y,Y,Y,2013-05-30,2013-11-27,,1.0,1.0,1.0,1.0
01-701-1363,10.0,10.0,CDISCPILOT01,ADQSCIBC,701,701,1363,WEEK 16,WEEK 16,Wk16,112.0,112.0,112.0,16.0,2013-09-18,2013-09-18,,Y,CIBIC Score,CIBICVAL,4.0,Placebo,Pbo,0.0,0.0,81.0,>80,3.0,F,Y,Y,Y,Y,Y,Y,Y,2013-05-30,2013-11-27,,1.0,1.0,1.0,1.0
01-701-1363,12.0,12.0,CDISCPILOT01,ADQSCIBC,701,701,1363,WEEK 24,WEEK 24,Wk24,168.0,168.0,168.0,24.0,2013-11-13,2013-11-13,,Y,CIBIC Score,CIBICVAL,5.0,Placebo,Pbo,0.0,0.0,81.0,>80,3.0,F,Y,Y,Y,Y,Y,Y,Y,2013-05-30,2013-11-27,,1.0,1.0,1.0,1.0
01-701-1383,8.0,8.0,CDISCPILOT01,ADQSCIBC,701,701,1383,WEEK 8,WEEK 8,Wk8,58.0,58.0,56.0,8.0,2013-04-02,2013-04-02,,Y,CIBIC Score,CIBICVAL,4.0,Xanomeline High Dose,Xan_Hi,2.0,81.0,72.0,65-80,2.0,F,Y,Y,Y,Y,Y,Y,Y,2013-02-04,2013-08-06,,1.0,1.0,1.0,1.0
01-701-1383,10.0,10.0,CDISCPILOT01,ADQSCIBC,701,701,1383,WEEK 16,WEEK 16,Wk16,116.0,116.0,112.0,16.0,2013-05-30,2013-05-30,,Y,CIBIC Score,CIBICVAL,4.0,Xanomeline High Dose,Xan_Hi,2.0,81.0,72.0,65-80,2.0,F,Y,Y,Y,Y,Y,Y,Y,2013-02-04,2013-08-06,,1.0,1.0,1.0,1.0
01-701-1383,12.0,12.0,CDISCPILOT01,ADQSCIBC,701,701,1383,WEEK 24,WEEK 24,Wk24,177.0,177.0,168.0,24.0,2013-07-30,2013-07-30,,Y,CIBIC Score,CIBICVAL,5.0,Xanomeline High Dose,Xan_Hi,2.0,81.0,72.0,65-80,2.0,F,Y,Y,Y,Y,Y,Y,Y,2013-02-04,2013-08-06,,1.0,1.0,1.0,1.0
01-701-1387,4.0,,CDISCPILOT01,ADQSCIBC,701,701,1387,WEEK 2,WEEK 2,,14.0,14.0,14.0,,2014-03-25,2014-03-25,,N,CIBIC Score,CIBICVAL,3.0,Placebo,Pbo,0.0,0.0,87.0,>80,3.0,F,Y,Y,Y,N,N,N,Y,2014-03-12,2014-03-25,,1.0,,,
01-701-1387,4.0,8.0,CDISCPILOT01,ADQSCIBC,701,701,1387,WEEK 8,WEEK 2,Wk8,14.0,14.0,14.0,8.0,2014-03-25,2014-03-25,,Y,CIBIC Score,CIBICVAL,3.0,Placebo,Pbo,0.0,0.0,87.0,>80,3.0,F,Y,Y,Y,N,N,N,Y,2014-03-12,2014-03-25,Y,,,1.0,1.0
01-701-1387,4.0,10.0,CDISCPILOT01,ADQSCIBC,701,701,1387,WEEK 16,WEEK 2,Wk16,14.0,14.0,14.0,16.0,2014-03-25,2014-03-25,LOCF,Y,CIBIC Score,CIBICVAL,3.0,Placebo,Pbo,0.0,0.0,87.0,>80,3.0,F,Y,Y,Y,N,N,N,Y,2014-03-12,2014-03-25,Y,,,,1.0
01-701-1387,201.0,201.0,CDISCPILOT01,ADQSCIBC,701,701,1387,RETRIEVAL,RETRIEVAL,Wk24,169.0,169.0,168.0,24.0,2014-08-27,2014-08-27,,Y,CIBIC Score,CIBICVAL,6.0,Placebo,Pbo,0.0,0.0,87.0,>80,3.0,F,Y,Y,Y,N,N,N,N,2014-03-12,2014-03-25,,1.0,1.0,1.0,1.0
01-701-1392,8.0,8.0,CDISCPILOT01,ADQSCIBC,701,701,1392,WEEK 8,WEEK 8,Wk8,54.0,54.0,56.0,8.0,2012-12-20,2012-12-20,,Y,CIBIC Score,CIBICVAL,4.0,Placebo,Pbo,0.0,0.0,78.0,65-80,2.0,M,Y,Y,Y,Y,Y,Y,Y,2012-10-28,2013-04-28,,1.0,1.0,1.0,1.0
01-701-1392,10.0,10.0,CDISCPILOT01,ADQSCIBC,701,701,1392,WEEK 16,WEEK 16,Wk16,113.0,113.0,112.0,16.0,2013-02-17,2013-02-17,,Y,CIBIC Score,CIBICVAL,5.0,Placebo,Pbo,0.0,0.0,78.0,65-80,2.0,M,Y,Y,Y,Y,Y,Y,Y,2012-10-28,2013-04-28,,1.0,1.0,1.0,1.0
01-701-1392,12.0,12.0,CDISCPILOT01,ADQSCIBC,701,701,1392,WEEK 24,WEEK 24,Wk24,170.0,170.0,168.0,24.0,2013-04-15,2013-04-15,,Y,CIBIC Score,CIBICVAL,4.0,Placebo,Pbo,0.0,0.0,78.0,65-80,2.0,M,Y,Y,Y,Y,Y,Y,Y,2012-10-28,2013-04-28,,1.0,1.0,1.0,1.0
01-701-1415,8.0,8.0,CDISCPILOT01,ADQSCIBC,701,701,1415,WEEK 8,WEEK 8,Wk8,60.0,60.0,56.0,8.0,2013-11-21,2013-11-21,,Y,CIBIC Score,CIBICVAL,5.0,Placebo,Pbo,0.0,0.0,85.0,>80,3.0,M,Y,Y,Y,Y,Y,Y,Y,2013-09-23,2014-03-24,,1.0,1.0,1.0,1.0
01-701-1415,10.0,10.0,CDISCPILOT01,ADQSCIBC,701,701,1415,WEEK 16,WEEK 16,Wk16,114.0,114.0,112.0,16.0,2014-01-14,2014-01-14,,Y,CIBIC Score,CIBICVAL,4.0,Placebo,Pbo,0.0,0.0,85.0,>80,3.0,M,Y,Y,Y,Y,Y,Y,Y,2013-09-23,2014-03-24,,1.0,1.0,1.0,1.0
01-701-1415,12.0,12.0,CDISCPILOT01,ADQSCIBC,701,701,1415,WEEK 24,WEEK 24,Wk24,169.0,169.0,168.0,24.0,2014-03-10,2014-03-10,,Y,CIBIC Score,CIBICVAL,4.0,Placebo,Pbo,0.0,0.0,85.0,>80,3.0,M,Y,Y,Y,Y,Y,Y,Y,2013-09-23,2014-03-24,,1.0,1.0,1.0,1.0
01-701-1429,7.0,,CDISCPILOT01,ADQSCIBC,701,701,1429,WEEK 6,WEEK 6,,43.0,43.0,42.0,,2013-04-30,2013-04-30,,N,CIBIC Score,CIBICVAL,3.0,Xanomeline Low Dose,Xan_Lo,1.0,54.0,84.0,>80,3.0,F,Y,Y,Y,N,N,N,Y,2013-03-19,2013-04-30,,1.0,,,
01-701-1429,7.0,8.0,CDISCPILOT01,ADQSCIBC,701,701,1429,WEEK 8,WEEK 6,Wk8,43.0,43.0,42.0,8.0,2013-04-30,2013-04-30,,Y,CIBIC Score,CIBICVAL,3.0,Xanomeline Low Dose,Xan_Lo,1.0,54.0,84.0,>80,3.0,F,Y,Y,Y,N,N,N,Y,2013-03-19,2013-04-30,Y,,,1.0,1.0
01-701-1429,7.0,10.0,CDISCPILOT01,ADQSCIBC,701,701,1429,WEEK 16,WEEK 6,Wk16,43.0,43.0,42.0,16.0,2013-04-30,2013-04-30,LOCF,Y,CIBIC Score,CIBICVAL,3.0,Xanomeline Low Dose,Xan_Lo,1.0,54.0,84.0,>80,3.0,F,Y,Y,Y,N,N,N,Y,2013-03-19,2013-04-30,Y,,,,1.0
01-701-1429,7.0,12.0,CDISCPILOT01,ADQSCIBC,701,701,1429,WEEK 24,WEEK 6,Wk24,43.0,43.0,42.0,24.0,2013-04-30,2013-04-30,LOCF,Y,CIBIC Score,CIBICVAL,3.0,Xanomeline Low Dose,Xan_Lo,1.0,54.0,84.0,>80,3.0,F,Y,Y,Y,N,N,N,Y,2013-03-19,2013-04-30,Y,,,,1.0
01-701-1440,8.0,8.0,CDISCPILOT01,ADQSCIBC,701,701,1440,WEEK 8,WEEK 8,Wk8,57.0,57.0,56.0,8.0,2013-10-03,2013-10-03,,Y,CIBIC Score,CIBICVAL,3.0,Placebo,Pbo,0.0,0.0,70.0,65-80,2.0,M,Y,Y,Y,Y,Y,Y,Y,2013-08-08,2014-02-05,,1.0,1.0,1.0,1.0
01-701-1440,10.0,10.0,CDISCPILOT01,ADQSCIBC,701,701,1440,WEEK 16,WEEK 16,Wk16,112.0,112.0,112.0,16.0,2013-11-27,2013-11-27,,Y,CIBIC Score,CIBICVAL,5.0,Placebo,Pbo,0.0,0.0,70.0,65-80,2.0,M,Y,Y,Y,Y,Y,Y,Y,2013-08-08,2014-02-05,,1.0,1.0,1.0,1.0
01-701-1440,12.0,12.0,CDISCPILOT01,ADQSCIBC,701,701,1440,WEEK 24,WEEK 24,Wk24,168.0,168.0,168.0,24.0,2014-01-22,2014-01-22,,Y,CIBIC Score,CIBICVAL,5.0,Placebo,Pbo,0.0,0.0,70.0,65-80,2.0,M,Y,Y,Y,Y,Y,Y,Y,2013-08-08,2014-02-05,,1.0,1.0,1.0,1.0
01-701-1442,8.0,8.0,CDISCPILOT01,ADQSCIBC,701,701,1442,WEEK 8,WEEK 8,Wk8,62.0,62.0,56.0,8.0,2013-12-26,2013-12-26,,Y,CIBIC Score,CIBICVAL,4.0,Xanomeline Low Dose,Xan_Lo,1.0,54.0,57.0,<65,1.0,F,Y,Y,Y,Y,Y,Y,Y,2013-10-26,2014-04-26,,1.0,1.0,1.0,1.0
01-701-1442,10.0,10.0,CDISCPILOT01,ADQSCIBC,701,701,1442,WEEK 16,WEEK 16,Wk16,113.0,113.0,112.0,16.0,2014-02-15,2014-02-15,,Y,CIBIC Score,CIBICVAL,4.0,Xanomeline Low Dose,Xan_Lo,1.0,54.0,57.0,<65,1.0,F,Y,Y,Y,Y,Y,Y,Y,2013-10-26,2014-04-26,,1.0,1.0,1.0,1.0
01-701-1442,12.0,12.0,CDISCPILOT01,ADQSCIBC,701,701,1442,WEEK 24,WEEK 24,Wk24,174.0,174.0,168.0,24.0,2014-04-17,2014-04-17,,Y,CIBIC Score,CIBICVAL,4.0,Xanomeline Low Dose,Xan_Lo,1.0,54.0,57.0,<65,1.0,F,Y,Y,Y,Y,Y,Y,Y,2013-10-26,2014-04-26,,1.0,1.0,1.0,1.0
01-701-1444,7.0,,CDISCPILOT01,ADQSCIBC,701,701,1444,WEEK 6,WEEK 6,,40.0,40.0,42.0,,2013-02-13,2013-02-13,,N,CIBIC Score,CIBICVAL,5.0,Xanomeline High Dose,Xan_Hi,2.0,81.0,63.0,<65,1.0,M,Y,Y,Y,N,N,N,N,2013-01-05,2013-02-12,,1.0,,,
01-701-1444,7.0,8.0,CDISCPILOT01,ADQSCIBC,701,701,1444,WEEK 8,WEEK 6,Wk8,40.0,40.0,42.0,8.0,2013-02-13,2013-02-13,,Y,CIBIC Score,CIBICVAL,5.0,Xanomeline High Dose,Xan_Hi,2.0,81.0,63.0,<65,1.0,M,Y,Y,Y,N,N,N,N,2013-01-05,2013-02-12,Y,,,1.0,1.0
01-701-1444,7.0,10.0,CDISCPILOT01,ADQSCIBC,701,701,1444,WEEK 16,WEEK 6,Wk16,40.0,40.0,42.0,16.0,2013-02-13,2013-02-13,LOCF,Y,CIBIC Score,CIBICVAL,5.0,Xanomeline High Dose,Xan_Hi,2.0,81.0,63.0,<65,1.0,M,Y,Y,Y,N,N,N,N,2013-01-05,2013-02-12,Y,,,,1.0
01-701-1444,201.0,201.0,CDISCPILOT01,ADQSCIBC,701,701,1444,RETRIEVAL,RETRIEVAL,Wk24,167.0,167.0,168.0,24.0,2013-06-20,2013-06-20,,Y,CIBIC Score,CIBICVAL,5.0,Xanomeline High Dose,Xan_Hi,2.0,81.0,63.0,<65,1.0,M,Y,Y,Y,N,N,N,N,2013-01-05,2013-02-12,,1.0,1.0,1.0,1.0
01-702-1082,8.0,8.0,CDISCPILOT01,ADQSCIBC,702,900,1082,WEEK 8,WEEK 8,Wk8,65.0,65.0,56.0,8.0,2013-09-28,2013-09-28,,Y,CIBIC Score,CIBICVAL,4.0,Xanomeline Low Dose,Xan_Lo,1.0,54.0,84.0,>80,3.0,F,Y,Y,Y,N,N,Y,Y,2013-07-26,2013-10-13,,1.0,1.0,1.0,1.0
01-702-1082,9.0,,CDISCPILOT01,ADQSCIBC,702,900,1082,WEEK 12,WEEK 12,,115.0,115.0,84.0,,2013-11-17,2013-11-17,,N,CIBIC Score,CIBICVAL,4.0,Xanomeline Low Dose,Xan_Lo,1.0,54.0,84.0,>80,3.0,F,Y,Y,Y,N,N,Y,N,2013-07-26,2013-10-13,,1.0,,,
01-702-1082,9.0,10.0,CDISCPILOT01,ADQSCIBC,702,900,1082,WEEK 16,WEEK 12,Wk16,115.0,115.0,84.0,16.0,2013-11-17,2013-11-17,,Y,CIBIC Score,CIBICVAL,4.0,Xanomeline Low Dose,Xan_Lo,1.0,54.0,84.0,>80,3.0,F,Y,Y,Y,N,N,Y,N,2013-07-26,2013-10-13,Y,,,1.0,1.0
01-702-1082,9.0,12.0,CDISCPILOT01,ADQSCIBC,702,900,1082,WEEK 24,WEEK 12,Wk24,115.0,115.0,84.0,24.0,2013-11-17,2013-11-17,LOCF,Y,CIBIC Score,CIBICVAL,4.0,Xanomeline Low Dose,Xan_Lo,1.0,54.0,84.0,>80,3.0,F,Y,Y,Y,N,N,Y,N,2013-07-26,2013-10-13,Y,,,,1.0
01-703-1042,10.0,10.0,CDISCPILOT01,ADQSCIBC,703,703,1042,WEEK 16,WEEK 16,Wk16,113.0,113.0,112.0,16.0,2013-06-22,2013-06-22,,Y,CIBIC Score,CIBICVAL,4.0,Placebo,Pbo,0.0,0.0,64.0,<65,1.0,M,Y,Y,Y,Y,Y,Y,Y,2013-03-02,2013-08-31,,1.0,1.0,1.0,1.0
01-703-1042,12.0,12.0,CDISCPILOT01,ADQSCIBC,703,703,1042,WEEK 24,WEEK 24,Wk24,161.0,161.0,168.0,24.0,2013-08-09,2013-08-09,,Y,CIBIC Score,CIBICVAL,4.0,Placebo,Pbo,0.0,0.0,64.0,<65,1.0,M,Y,Y,Y,Y,Y,Y,Y,2013-03-02,2013-08-31,,1.0,1.0,1.0,1.0
01-703-1076,8.0,8.0,CDISCPILOT01,ADQSCIBC,703,703,1076,WEEK 8,WEEK 8,Wk8,54.0,54.0,56.0,8.0,2013-12-17,2013-12-17,,Y,CIBIC Score,CIBICVAL,3.0,Xanomeline High Dose,Xan_Hi,2.0,81.0,69.0,65-80,2.0,M,Y,Y,Y,N,N,Y,Y,2013-10-25,2013-12-24,,1.0,1.0,1.0,1.0
01-703-1076,8.0,10.0,CDISCPILOT01,ADQSCIBC,703,703,1076,WEEK 16,WEEK 8,Wk16,54.0,54.0,56.0,16.0,2013-12-17,2013-12-17,LOCF,Y,CIBIC Score,CIBICVAL,3.0,Xanomeline High Dose,Xan_Hi,2.0,81.0,69.0,65-80,2.0,M,Y,Y,Y,N,N,Y,Y,2013-10-25,2013-12-24,Y,,,,1.0
01-703-1076,8.0,12.0,CDISCPILOT01,ADQSCIBC,703,703,1076,WEEK 24,WEEK 8,Wk24,54.0,54.0,56.0,24.0,2013-12-17,2013-12-17,LOCF,Y,CIBIC Score,CIBICVAL,3.0,Xanomeline High Dose,Xan_Hi,2.0,81.0,69.0,65-80,2.0,M,Y,Y,Y,N,N,Y,Y,2013-10-25,2013-12-24,Y,,,,1.0
01-703-1076,9.0,,CDISCPILOT01,ADQSCIBC,703,703,1076,WEEK 12,WEEK 12,,61.0,61.0,84.0,,2013-12-24,2013-12-24,,N,CIBIC Score,CIBICVAL,3.0,Xanomeline High Dose,Xan_Hi,2.0,81.0,69.0,65-80,2.0,M,Y,Y,Y,N,N,Y,Y,2013-10-25,2013-12-24,,1.0,,,
01-703-1086,8.0,8.0,CDISCPILOT01,ADQSCIBC,703,703,1086,WEEK 8,WEEK 8,Wk8,56.0,56.0,56.0,8.0,2012-10-27,2012-10-27,,Y,CIBIC Score,CIBICVAL,3.0,Xanomeline Low Dose,Xan_Lo,1.0,54.0,71.0,65-80,2.0,M,Y,Y,Y,N,Y,Y,Y,2012-09-02,2012-12-04,,1.0,1.0,1.0,1.0
01-703-1086,10.0,10.0,CDISCPILOT01,ADQSCIBC,703,703,1086,WEEK 16,WEEK 16,Wk16,114.0,114.0,112.0,16.0,2012-12-24,2012-12-24,,Y,CIBIC Score,CIBICVAL,3.0,Xanomeline Low Dose,Xan_Lo,1.0,54.0,71.0,65-80,2.0,M,Y,Y,Y,N,Y,Y,N,2012-09-02,2012-12-04,,1.0,1.0,1.0,1.0
01-703-1086,201.0,201.0,CDISCPILOT01,ADQSCIBC,703,703,1086,RETRIEVAL,RETRIEVAL,Wk24,206.0,206.0,168.0,24.0,2013-03-26,2013-03-26,,Y,CIBIC Score,CIBICVAL,3.0,Xanomeline Low Dose,Xan_Lo,1.0,54.0,71.0,65-80,2.0,M,Y,Y,Y,N,Y,Y,N,2012-09-02,2012-12-04,,1.0,1.0,1.0,1.0
01-703-1100,8.0,8.0,CDISCPILOT01,ADQSCIBC,703,703,1100,WEEK 8,WEEK 8,Wk8,57.0,57.0,56.0,8.0,2013-05-08,2013-05-08,,Y,CIBIC Score,CIBICVAL,4.0,Placebo,Pbo,0.0,0.0,84.0,>80,3.0,F,Y,Y,Y,Y,Y,Y,Y,2013-03-13,2013-09-14,,1.0,1.0,1.0,1.0
01-703-1100,10.0,10.0,CDISCPILOT01,ADQSCIBC,703,703,1100,WEEK 16,WEEK 16,Wk16,113.0,113.0,112.0,16.0,2013-07-03,2013-07-03,,Y,CIBIC Score,CIBICVAL,4.0,Placebo,Pbo,0.0,0.0,84.0,>80,3.0,F,Y,Y,Y,Y,Y,Y,Y,2013-03-13,2013-09-14,,1.0,1.0,1.0,1.0
01-703-1100,12.0,12.0,CDISCPILOT01,ADQSCIBC,703,703,1100,WEEK 24,WEEK 24,Wk24,169.0,169.0,168.0,24.0,2013-08-28,2013-08-28,,Y,CIBIC Score,CIBICVAL,5.0,Placebo,Pbo,0.0,0.0,84.0,>80,3.0,F,Y,Y,Y,Y,Y,Y,Y,2013-03-13,2013-09-14,,1.0,1.0,1.0,1.0
01-703-1119,8.0,8.0,CDISCPILOT01,ADQSCIBC,703,703,1119,WEEK 8,WEEK 8,Wk8,59.0,59.0,56.0,8.0,2013-04-19,2013-04-19,,Y,CIBIC Score,CIBICVAL,4.0,Xanomeline Low Dose,Xan_Lo,1.0,54.0,81.0,>80,3.0,F,Y,Y,Y,N,Y,Y,Y,2013-02-20,2013-06-13,,1.0,1.0,1.0,1.0
01-703-1119,10.0,10.0,CDISCPILOT01,ADQSCIBC,703,703,1119,WEEK 16,WEEK 16,Wk16,114.0,114.0,112.0,16.0,2013-06-13,2013-06-13,,Y,CIBIC Score,CIBICVAL,5.0,Xanomeline Low Dose,Xan_Lo,1.0,54.0,81.0,>80,3.0,F,Y,Y,Y,N,Y,Y,Y,2013-02-20,2013-06-13,,1.0,1.0,1.0,1.0
01-703-1119,201.0,201.0,CDISCPILOT01,ADQSCIBC,703,703,1119,RETRIEVAL,RETRIEVAL,Wk24,186.0,186.0,168.0,24.0,2013-08-24,2013-08-24,,Y,CIBIC Score,CIBICVAL,5.0,Xanomeline Low Dose,Xan_Lo,1.0,54.0,81.0,>80,3.0,F,Y,Y,Y,N,Y,Y,N,2013-02-20,2013-06-13,,1.0,1.0,1.0,1.0
01-703-1175,4.0,,CDISCPILOT01,ADQSCIBC,703,703,1175,WEEK 2,WEEK 2,,12.0,12.0,14.0,,2013-12-31,2013-12-31,,N,CIBIC Score,CIBICVAL,4.0,Placebo,Pbo,0.0,0.0,75.0,65-80,2.0,M,Y,Y,Y,N,N,N,N,2013-12-20,2013-12-26,,1.0,,,
01-703-1175,4.0,8.0,CDISCPILOT01,ADQSCIBC,703,703,1175,WEEK 8,WEEK 2,Wk8,12.0,12.0,14.0,8.0,2013-12-31,2013-12-31,,Y,CIBIC Score,CIBICVAL,4.0,Placebo,Pbo,0.0,0.0,75.0,65-80,2.0,M,Y,Y,Y,N,N,N,N,2013-12-20,2013-12-26,Y,,,1.0,1.0
01-703-1175,4.0,10.0,CDISCPILOT01,ADQSCIBC,703,703,1175,WEEK 16,WEEK 2,Wk16,12.0,12.0,14.0,16.0,2013-12-31,2013-12-31,LOCF,Y,CIBIC Score,CIBICVAL,4.0,Placebo,Pbo,0.0,0.0,75.0,65-80,2.0,M,Y,Y,Y,N,N,N,N,2013-12-20,2013-12-26,Y,,,,1.0
01-703-1175,4.0,12.0,CDISCPILOT01,ADQSCIBC,703,703,1175,WEEK 24,WEEK 2,Wk24,12.0,12.0,14.0,24.0,2013-12-31,2013-12-31,LOCF,Y,CIBIC Score,CIBICVAL,4.0,Placebo,Pbo,0.0,0.0,75.0,65-80,2.0,M,Y,Y,Y,N,N,N,N,2013-12-20,2013-12-26,Y,,,,1.0
01-703-1182,8.0,8.0,CDISCPILOT01,ADQSCIBC,703,703,1182,WEEK 8,WEEK 8,Wk8,57.0,57.0,56.0,8.0,2013-12-12,2013-12-12,,Y,CIBIC Score,CIBICVAL,4.0,Xanomeline Low Dose,Xan_Lo,1.0,54.0,84.0,>80,3.0,M,Y,Y,Y,N,N,Y,N,2013-10-17,2013-12-11,,1.0,1.0,1.0,1.0
01-703-1182,8.0,10.0,CDISCPILOT01,ADQSCIBC,703,703,1182,WEEK 16,WEEK 8,Wk16,57.0,57.0,56.0,16.0,2013-12-12,2013-12-12,LOCF,Y,CIBIC Score,CIBICVAL,4.0,Xanomeline Low Dose,Xan_Lo,1.0,54.0,84.0,>80,3.0,M,Y,Y,Y,N,N,Y,N,2013-10-17,2013-12-11,Y,,,,1.0
01-703-1182,8.0,12.0,CDISCPILOT01,ADQSCIBC,703,703,1182,WEEK 24,WEEK 8,Wk24,57.0,57.0,56.0,24.0,2013-12-12,2013-12-12,LOCF,Y,CIBIC Score,CIBICVAL,4.0,Xanomeline Low Dose,Xan_Lo,1.0,54.0,84.0,>80,3.0,M,Y,Y,Y,N,N,Y,N,2013-10-17,2013-12-11,Y,,,,1.0
01-703-1197,4.0,,CDISCPILOT01,ADQSCIBC,703,703,1197,WEEK 2,WEEK 2,,37.0,37.0,14.0,,2013-07-22,2013-07-22,,N,CIBIC Score,CIBICVAL,4.0,Xanomeline Low Dose,Xan_Lo,1.0,54.0,76.0,65-80,2.0,F,Y,Y,Y,N,N,N,N,2013-06-16,2013-06-29,,1.0,,,
01-703-1197,4.0,8.0,CDISCPILOT01,ADQSCIBC,703,703,1197,WEEK 8,WEEK 2,Wk8,37.0,37.0,14.0,8.0,2013-07-22,2013-07-22,,Y,CIBIC Score,CIBICVAL,4.0,Xanomeline Low Dose,Xan_Lo,1.0,54.0,76.0,65-80,2.0,F,Y,Y,Y,N,N,N,N,2013-06-16,2013-06-29,Y,,,1.0,1.0
01-703-1197,4.0,10.0,CDISCPILOT01,ADQSCIBC,703,703,1197,WEEK 16,WEEK 2,Wk16,37.0,37.0,14.0,16.0,2013-07-22,2013-07-22,LOCF,Y,CIBIC Score,CIBICVAL,4.0,Xanomeline Low Dose,Xan_Lo,1.0,54.0,76.0,65-80,2.0,F,Y,Y,Y,N,N,N,N,2013-06-16,2013-06-29,Y,,,,1.0
01-703-1197,4.0,12.0,CDISCPILOT01,ADQSCIBC,703,703,1197,WEEK 24,WEEK 2,Wk24,37.0,37.0,14.0,24.0,2013-07-22,2013-07-22,LOCF,Y,CIBIC Score,CIBICVAL,4.0,Xanomeline Low Dose,Xan_Lo,1.0,54.0,76.0,65-80,2.0,F,Y,Y,Y,N,N,N,N,2013-06-16,2013-06-29,Y,,,,1.0
01-703-1210,8.0,8.0,CDISCPILOT01,ADQSCIBC,703,703,1210,WEEK 8,WEEK 8,Wk8,56.0,56.0,56.0,8.0,2013-05-10,2013-05-10,,Y,CIBIC Score,CIBICVAL,5.0,Placebo,Pbo,0.0,0.0,72.0,65-80,2.0,F,Y,Y,Y,Y,Y,Y,Y,2013-03-16,2013-09-06,,1.0,1.0,1.0,1.0
01-703-1210,10.0,10.0,CDISCPILOT01,ADQSCIBC,703,703,1210,WEEK 16,WEEK 16,Wk16,112.0,112.0,112.0,16.0,2013-07-05,2013-07-05,,Y,CIBIC Score,CIBICVAL,4.0,Placebo,Pbo,0.0,0.0,72.0,65-80,2.0,F,Y,Y,Y,Y,Y,Y,Y,2013-03-16,2013-09-06,,1.0,1.0,1.0,1.0
01-703-1210,12.0,12.0,CDISCPILOT01,ADQSCIBC,703,703,1210,WEEK 24,WEEK 24,Wk24,162.0,162.0,168.0,24.0,2013-08-24,2013-08-24,,Y,CIBIC Score,CIBICVAL,5.0,Placebo,Pbo,0.0,0.0,72.0,65-80,2.0,F,Y,Y,Y,Y,Y,Y,Y,2013-03-16,2013-09-06,,1.0,1.0,1.0,1.0
01-703-1258,8.0,8.0,CDISCPILOT01,ADQSCIBC,703,703,1258,WEEK 8,WEEK 8,Wk8,57.0,57.0,56.0,8.0,2012-09-14,2012-09-14,,Y,CIBIC Score,CIBICVAL,5.0,Xanomeline High Dose,Xan_Hi,2.0,81.0,78.0,65-80,2.0,F,Y,Y,Y,Y,Y,Y,Y,2012-07-20,2013-01-11,,1.0,1.0,1.0,1.0
01-703-1258,10.0,10.0,CDISCPILOT01,ADQSCIBC,703,703,1258,WEEK 16,WEEK 16,Wk16,109.0,109.0,112.0,16.0,2012-11-05,2012-11-05,,Y,CIBIC Score,CIBICVAL,4.0,Xanomeline High Dose,Xan_Hi,2.0,81.0,78.0,65-80,2.0,F,Y,Y,Y,Y,Y,Y,Y,2012-07-20,2013-01-11,,1.0,1.0,1.0,1.0
01-703-1258,12.0,12.0,CDISCPILOT01,ADQSCIBC,703,703,1258,WEEK 24,WEEK 24,Wk24,165.0,165.0,168.0,24.0,2012-12-31,2012-12-31,,Y,CIBIC Score,CIBICVAL,5.0,Xanomeline High Dose,Xan_Hi,2.0,81.0,78.0,65-80,2.0,F,Y,Y,Y,Y,Y,Y,Y,2012-07-20,2013-01-11,,1.0,1.0,1.0,1.0
01-703-1295,8.0,8.0,CDISCPILOT01,ADQSCIBC,703,703,1295,WEEK 8,WEEK 8,Wk8,56.0,56.0,56.0,8.0,2014-01-15,2014-01-15,,Y,CIBIC Score,CIBICVAL,5.0,Xanomeline High Dose,Xan_Hi,2.0,81.0,88.0,>80,3.0,F,Y,Y,Y,N,Y,Y,Y,2013-11-21,2014-04-19,,1.0,1.0,1.0,1.0
01-703-1295,10.0,10.0,CDISCPILOT01,ADQSCIBC,703,703,1295,WEEK 16,WEEK 16,Wk16,113.0,113.0,112.0,16.0,2014-03-13,2014-03-13,,Y,CIBIC Score,CIBICVAL,4.0,Xanomeline High Dose,Xan_Hi,2.0,81.0,88.0,>80,3.0,F,Y,Y,Y,N,Y,Y,Y,2013-11-21,2014-04-19,,1.0,1.0,1.0,1.0
01-703-1295,10.0,12.0,CDISCPILOT01,ADQSCIBC,703,703,1295,WEEK 24,WEEK 16,Wk24,113.0,113.0,112.0,24.0,2014-03-13,2014-03-13,LOCF,Y,CIBIC Score,CIBICVAL,4.0,Xanomeline High Dose,Xan_Hi,2.0,81.0,88.0,>80,3.0,F,Y,Y,Y,N,Y,Y,Y,2013-11-21,2014-04-19,Y,,,,1.0
01-703-1299,8.0,8.0,CDISCPILOT01,ADQSCIBC,703,703,1299,WEEK 8,WEEK 8,Wk8,57.0,57.0,56.0,8.0,2012-11-07,2012-11-07,,Y,CIBIC Score,CIBICVAL,3.0,Placebo,Pbo,0.0,0.0,81.0,>80,3.0,F,Y,Y,Y,Y,Y,Y,Y,2012-09-12,2013-03-13,,1.0,1.0,1.0,1.0
01-703-1299,10.0,10.0,CDISCPILOT01,ADQSCIBC,703,703,1299,WEEK 16,WEEK 16,Wk16,113.0,113.0,112.0,16.0,2013-01-02,2013-01-02,,Y,CIBIC Score,CIBICVAL,4.0,Placebo,Pbo,0.0,0.0,81.0,>80,3.0,F,Y,Y,Y,Y,Y,Y,Y,2012-09-12,2013-03-13,,1.0,1.0,1.0,1.0
01-703-1299,12.0,12.0,CDISCPILOT01,ADQSCIBC,703,703,1299,WEEK 24,WEEK 24,Wk24,171.0,171.0,168.0,24.0,2013-03-01,2013-03-01,,Y,CIBIC Score,CIBICVAL,4.0,Placebo,Pbo,0.0,0.0,81.0,>80,3.0,F,Y,Y,Y,Y,Y,Y,Y,2012-09-12,2013-03-13,,1.0,1.0,1.0,1.0
01-703-1335,7.0,,CDISCPILOT01,ADQSCIBC,703,703,1335,WEEK 6,WEEK 6,,69.0,69.0,42.0,,2014-05-24,2014-05-24,,N,CIBIC Score,CIBICVAL,5.0,Xanomeline High Dose,Xan_Hi,2.0,81.0,67.0,65-80,2.0,F,Y,Y,Y,N,N,N,N,2014-03-17,2014-05-07,,1.0,,,
01-703-1335,7.0,8.0,CDISCPILOT01,ADQSCIBC,703,703,1335,WEEK 8,WEEK 6,Wk8,69.0,69.0,42.0,8.0,2014-05-24,2014-05-24,,Y,CIBIC Score,CIBICVAL,5.0,Xanomeline High Dose,Xan_Hi,2.0,81.0,67.0,65-80,2.0,F,Y,Y,Y,N,N,N,N,2014-03-17,2014-05-07,Y,,,1.0,1.0
01-703-1335,7.0,10.0,CDISCPILOT01,ADQSCIBC,703,703,1335,WEEK 16,WEEK 6,Wk16,69.0,69.0,42.0,16.0,2014-05-24,2014-05-24,LOCF,Y,CIBIC Score,CIBICVAL,5.0,Xanomeline High Dose,Xan_Hi,2.0,81.0,67.0,65-80,2.0,F,Y,Y,Y,N,N,N,N,2014-03-17,2014-05-07,Y,,,,1.0
01-703-1335,7.0,12.0,CDISCPILOT01,ADQSCIBC,703,703,1335,WEEK 24,WEEK 6,Wk24,69.0,69.0,42.0,24.0,2014-05-24,2014-05-24,LOCF,Y,CIBIC Score,CIBICVAL,5.0,Xanomeline High Dose,Xan_Hi,2.0,81.0,67.0,65-80,2.0,F,Y,Y,Y,N,N,N,N,2014-03-17,2014-05-07,Y,,,,1.0
01-703-1379,8.0,8.0,CDISCPILOT01,ADQSCIBC,703,703,1379,WEEK 8,WEEK 8,Wk8,57.0,57.0,56.0,8.0,2013-11-17,2013-11-17,,Y,CIBIC Score,CIBICVAL,4.0,Xanomeline Low Dose,Xan_Lo,1.0,54.0,81.0,>80,3.0,F,Y,Y,Y,Y,Y,Y,Y,2013-09-22,2014-03-21,,1.0,1.0,1.0,1.0
01-703-1379,10.0,10.0,CDISCPILOT01,ADQSCIBC,703,703,1379,WEEK 16,WEEK 16,Wk16,112.0,112.0,112.0,16.0,2014-01-11,2014-01-11,,Y,CIBIC Score,CIBICVAL,4.0,Xanomeline Low Dose,Xan_Lo,1.0,54.0,81.0,>80,3.0,F,Y,Y,Y,Y,Y,Y,Y,2013-09-22,2014-03-21,,1.0,1.0,1.0,1.0
01-703-1379,12.0,12.0,CDISCPILOT01,ADQSCIBC,703,703,1379,WEEK 24,WEEK 24,Wk24,168.0,168.0,168.0,24.0,2014-03-08,2014-03-08,,Y,CIBIC Score,CIBICVAL,5.0,Xanomeline Low Dose,Xan_Lo,1.0,54.0,81.0,>80,3.0,F,Y,Y,Y,Y,Y,Y,Y,2013-09-22,2014-03-21,,1.0,1.0,1.0,1.0
01-703-1439,8.0,8.0,CDISCPILOT01,ADQSCIBC,703,703,1439,WEEK 8,WEEK 8,Wk8,55.0,55.0,56.0,8.0,2014-05-05,2014-05-05,,Y,CIBIC Score,CIBICVAL,4.0,Xanomeline High Dose,Xan_Hi,2.0,81.0,76.0,65-80,2.0,F,Y,Y,Y,Y,Y,Y,Y,2014-03-12,2014-09-11,,1.0,1.0,1.0,1.0
01-703-1439,10.0,10.0,CDISCPILOT01,ADQSCIBC,703,703,1439,WEEK 16,WEEK 16,Wk16,111.0,111.0,112.0,16.0,2014-06-30,2014-06-30,,Y,CIBIC Score,CIBICVAL,5.0,Xanomeline High Dose,Xan_Hi,2.0,81.0,76.0,65-80,2.0,F,Y,Y,Y,Y,Y,Y,Y,2014-03-12,2014-09-11,,1.0,1.0,1.0,1.0
01-703-1439,12.0,12.0,CDISCPILOT01,ADQSCIBC,703,703,1439,WEEK 24,WEEK 24,Wk24,170.0,170.0,168.0,24.0,2014-08-28,2014-08-28,,Y,CIBIC Score,CIBICVAL,5.0,Xanomeline High Dose,Xan_Hi,2.0,81.0,76.0,65-80,2.0,F,Y,Y,Y,Y,Y,Y,Y,2014-03-12,2014-09-11,,1.0,1.0,1.0,1.0
01-704-1008,7.0,,CDISCPILOT01,ADQSCIBC,704,704,1008,WEEK 6,WEEK 6,,44.0,44.0,42.0,,2013-02-25,2013-02-25,,N,CIBIC Score,CIBICVAL,5.0,Xanomeline High Dose,Xan_Hi,2.0,81.0,76.0,65-80,2.0,F,Y,Y,Y,N,N,N,N,2013-01-13,2013-02-21,,1.0,,,
01-704-1008,7.0,8.0,CDISCPILOT01,ADQSCIBC,704,704,1008,WEEK 8,WEEK 6,Wk8,44.0,44.0,42.0,8.0,2013-02-25,2013-02-25,,Y,CIBIC Score,CIBICVAL,5.0,Xanomeline High Dose,Xan_Hi,2.0,81.0,76.0,65-80,2.0,F,Y,Y,Y,N,N,N,N,2013-01-13,2013-02-21,Y,,,1.0,1.0
01-704-1008,7.0,10.0,CDISCPILOT01,ADQSCIBC,704,704,1008,WEEK 16,WEEK 6,Wk16,44.0,44.0,42.0,16.0,2013-02-25,2013-02-25,LOCF,Y,CIBIC Score,CIBICVAL,5.0,Xanomeline High Dose,Xan_Hi,2.0,81.0,76.0,65-80,2.0,F,Y,Y,Y,N,N,N,N,2013-01-13,2013-02-21,Y,,,,1.0
01-704-1008,7.0,12.0,CDISCPILOT01,ADQSCIBC,704,704,1008,WEEK 24,WEEK 6,Wk24,44.0,44.0,42.0,24.0,2013-02-25,2013-02-25,LOCF,Y,CIBIC Score,CIBICVAL,5.0,Xanomeline High Dose,Xan_Hi,2.0,81.0,76.0,65-80,2.0,F,Y,Y,Y,N,N,N,N,2013-01-13,2013-02-21,Y,,,,1.0
01-704-1009,5.0,,CDISCPILOT01,ADQSCIBC,704,704,1009,WEEK 4,WEEK 4,,37.0,37.0,28.0,,2013-10-02,2013-10-02,,N,CIBIC Score,CIBICVAL,4.0,Xanomeline Low Dose,Xan_Lo,1.0,54.0,83.0,>80,3.0,M,Y,Y,Y,N,N,N,N,2013-08-27,2013-09-25,,1.0,,,
01-704-1009,5.0,8.0,CDISCPILOT01,ADQSCIBC,704,704,1009,WEEK 8,WEEK 4,Wk8,37.0,37.0,28.0,8.0,2013-10-02,2013-10-02,,Y,CIBIC Score,CIBICVAL,4.0,Xanomeline Low Dose,Xan_Lo,1.0,54.0,83.0,>80,3.0,M,Y,Y,Y,N,N,N,N,2013-08-27,2013-09-25,Y,,,1.0,1.0
01-704-1009,5.0,10.0,CDISCPILOT01,ADQSCIBC,704,704,1009,WEEK 16,WEEK 4,Wk16,37.0,37.0,28.0,16.0,2013-10-02,2013-10-02,LOCF,Y,CIBIC Score,CIBICVAL,4.0,Xanomeline Low Dose,Xan_Lo,1.0,54.0,83.0,>80,3.0,M,Y,Y,Y,N,N,N,N,2013-08-27,2013-09-25,Y,,,,1.0
01-704-1009,5.0,12.0,CDISCPILOT01,ADQSCIBC,704,704,1009,WEEK 24,WEEK 4,Wk24,37.0,37.0,28.0,24.0,2013-10-02,2013-10-02,LOCF,Y,CIBIC Score,CIBICVAL,4.0,Xanomeline Low Dose,Xan_Lo,1.0,54.0,83.0,>80,3.0,M,Y,Y,Y,N,N,N,N,2013-08-27,2013-09-25,Y,,,,1.0
01-704-1010,8.0,8.0,CDISCPILOT01,ADQSCIBC,704,704,1010,WEEK 8,WEEK 8,Wk8,63.0,63.0,56.0,8.0,2014-04-24,2014-04-24,,Y,CIBIC Score,CIBICVAL,4.0,Placebo,Pbo,0.0,0.0,80.0,65-80,2.0,M,Y,Y,Y,N,Y,Y,Y,2014-02-21,2014-07-08,,1.0,1.0,1.0,1.0
01-704-1010,10.0,10.0,CDISCPILOT01,ADQSCIBC,704,704,1010,WEEK 16,WEEK 16,Wk16,113.0,113.0,112.0,16.0,2014-06-13,2014-06-13,,Y,CIBIC Score,CIBICVAL,3.0,Placebo,Pbo,0.0,0.0,80.0,65-80,2.0,M,Y,Y,Y,N,Y,Y,Y,2014-02-21,2014-07-08,,1.0,1.0,1.0,1.0
01-704-1010,10.0,12.0,CDISCPILOT01,ADQSCIBC,704,704,1010,WEEK 24,WEEK 16,Wk24,113.0,113.0,112.0,24.0,2014-06-13,2014-06-13,LOCF,Y,CIBIC Score,CIBICVAL,3.0,Placebo,Pbo,0.0,0.0,80.0,65-80,2.0,M,Y,Y,Y,N,Y,Y,Y,2014-02-21,2014-07-08,Y,,,,1.0
01-704-1010,11.0,,CDISCPILOT01,ADQSCIBC,704,704,1010,WEEK 20,WEEK 20,,139.0,139.0,140.0,,2014-07-09,2014-07-09,,N,CIBIC Score,CIBICVAL,3.0,Placebo,Pbo,0.0,0.0,80.0,65-80,2.0,M,Y,Y,Y,N,Y,Y,N,2014-02-21,2014-07-08,,1.0,,,
01-704-1017,7.0,,CDISCPILOT01,ADQSCIBC,704,704,1017,WEEK 6,WEEK 6,,50.0,50.0,42.0,,2013-11-24,2013-11-24,,N,CIBIC Score,CIBICVAL,4.0,Xanomeline High Dose,Xan_Hi,2.0,81.0,77.0,65-80,2.0,M,Y,Y,Y,N,N,N,N,2013-10-06,2013-11-18,,1.0,,,
01-704-1017,7.0,8.0,CDISCPILOT01,ADQSCIBC,704,704,1017,WEEK 8,WEEK 6,Wk8,50.0,50.0,42.0,8.0,2013-11-24,2013-11-24,,Y,CIBIC Score,CIBICVAL,4.0,Xanomeline High Dose,Xan_Hi,2.0,81.0,77.0,65-80,2.0,M,Y,Y,Y,N,N,N,N,2013-10-06,2013-11-18,Y,,,1.0,1.0
01-704-1017,7.0,10.0,CDISCPILOT01,ADQSCIBC,704,704,1017,WEEK 16,WEEK 6,Wk16,50.0,50.0,42.0,16.0,2013-11-24,2013-11-24,LOCF,Y,CIBIC Score,CIBICVAL,4.0,Xanomeline High Dose,Xan_Hi,2.0,81.0,77.0,65-80,2.0,M,Y,Y,Y,N,N,N,N,2013-10-06,2013-11-18,Y,,,,1.0
01-704-1017,7.0,12.0,CDISCPILOT01,ADQSCIBC,704,704,1017,WEEK 24,WEEK 6,Wk24,50.0,50.0,42.0,24.0,2013-11-24,2013-11-24,LOCF,Y,CIBIC Score,CIBICVAL,4.0,Xanomeline High Dose,Xan_Hi,2.0,81.0,77.0,65-80,2.0,M,Y,Y,Y,N,N,N,N,2013-10-06,2013-11-18,Y,,,,1.0
01-704-1025,6.0,,CDISCPILOT01,ADQSCIBC,704,704,1025,AMBUL ECG REMOVAL,AMBUL ECG REMOVAL,,64.0,64.0,30.0,,2013-11-29,2013-11-29,,N,CIBIC Score,CIBICVAL,4.0,Xanomeline Low Dose,Xan_Lo,1.0,54.0,81.0,>80,3.0,F,Y,Y,Y,N,N,N,N,2013-09-27,2013-10-24,,1.0,,,
01-704-1025,6.0,8.0,CDISCPILOT01,ADQSCIBC,704,704,1025,WEEK 8,AMBUL ECG REMOVAL,Wk8,64.0,64.0,30.0,8.0,2013-11-29,2013-11-29,,Y,CIBIC Score,CIBICVAL,4.0,Xanomeline Low Dose,Xan_Lo,1.0,54.0,81.0,>80,3.0,F,Y,Y,Y,N,N,N,N,2013-09-27,2013-10-24,Y,,,1.0,1.0
01-704-1025,6.0,10.0,CDISCPILOT01,ADQSCIBC,704,704,1025,WEEK 16,AMBUL ECG REMOVAL,Wk16,64.0,64.0,30.0,16.0,2013-11-29,2013-11-29,LOCF,Y,CIBIC Score,CIBICVAL,4.0,Xanomeline Low Dose,Xan_Lo,1.0,54.0,81.0,>80,3.0,F,Y,Y,Y,N,N,N,N,2013-09-27,2013-10-24,Y,,,,1.0
01-704-1025,6.0,12.0,CDISCPILOT01,ADQSCIBC,704,704,1025,WEEK 24,AMBUL ECG REMOVAL,Wk24,64.0,64.0,30.0,24.0,2013-11-29,2013-11-29,LOCF,Y,CIBIC Score,CIBICVAL,4.0,Xanomeline Low Dose,Xan_Lo,1.0,54.0,81.0,>80,3.0,F,Y,Y,Y,N,N,N,N,2013-09-27,2013-10-24,Y,,,,1.0
01-704-1065,8.0,8.0,CDISCPILOT01,ADQSCIBC,704,704,1065,WEEK 8,WEEK 8,Wk8,58.0,58.0,56.0,8.0,2013-12-20,2013-12-20,,Y,CIBIC Score,CIBICVAL,4.0,Xanomeline High Dose,Xan_Hi,2.0,81.0,75.0,65-80,2.0,M,Y,Y,Y,N,N,Y,Y,2013-10-24,2013-12-22,,1.0,1.0,1.0,1.0
01-704-1065,8.0,10.0,CDISCPILOT01,ADQSCIBC,704,704,1065,WEEK 16,WEEK 8,Wk16,58.0,58.0,56.0,16.0,2013-12-20,2013-12-20,LOCF,Y,CIBIC Score,CIBICVAL,4.0,Xanomeline High Dose,Xan_Hi,2.0,81.0,75.0,65-80,2.0,M,Y,Y,Y,N,N,Y,Y,2013-10-24,2013-12-22,Y,,,,1.0
01-704-1065,8.0,12.0,CDISCPILOT01,ADQSCIBC,704,704,1065,WEEK 24,WEEK 8,Wk24,58.0,58.0,56.0,24.0,2013-12-20,2013-12-20,LOCF,Y,CIBIC Score,CIBICVAL,4.0,Xanomeline High Dose,Xan_Hi,2.0,81.0,75.0,65-80,2.0,M,Y,Y,Y,N,N,Y,Y,2013-10-24,2013-12-22,Y,,,,1.0
01-704-1065,9.0,,CDISCPILOT01,ADQSCIBC,704,704,1065,WEEK 12,WEEK 12,,62.0,62.0,84.0,,2013-12-24,2013-12-24,,N,CIBIC Score,CIBICVAL,5.0,Xanomeline High Dose,Xan_Hi,2.0,81.0,75.0,65-80,2.0,M,Y,Y,Y,N,N,Y,N,2013-10-24,2013-12-22,,1.0,,,
01-704-1074,8.0,8.0,CDISCPILOT01,ADQSCIBC,704,704,1074,WEEK 8,WEEK 8,Wk8,69.0,69.0,56.0,8.0,2014-03-31,2014-03-31,,Y,CIBIC Score,CIBICVAL,4.0,Xanomeline High Dose,Xan_Hi,2.0,81.0,80.0,65-80,2.0,F,Y,Y,Y,N,N,Y,N,2014-01-22,2014-03-20,,1.0,1.0,1.0,1.0
01-704-1074,8.0,10.0,CDISCPILOT01,ADQSCIBC,704,704,1074,WEEK 16,WEEK 8,Wk16,69.0,69.0,56.0,16.0,2014-03-31,2014-03-31,LOCF,Y,CIBIC Score,CIBICVAL,4.0,Xanomeline High Dose,Xan_Hi,2.0,81.0,80.0,65-80,2.0,F,Y,Y,Y,N,N,Y,N,2014-01-22,2014-03-20,Y,,,,1.0
01-704-1074,8.0,12.0,CDISCPILOT01,ADQSCIBC,704,704,1074,WEEK 24,WEEK 8,Wk24,69.0,69.0,56.0,24.0,2014-03-31,2014-03-31,LOCF,Y,CIBIC Score,CIBICVAL,4.0,Xanomeline High Dose,Xan_Hi,2.0,81.0,80.0,65-80,2.0,F,Y,Y,Y,N,N,Y,N,2014-01-22,2014-03-20,Y,,,,1.0
01-704-1093,8.0,8.0,CDISCPILOT01,ADQSCIBC,704,704,1093,WEEK 8,WEEK 8,Wk8,58.0,58.0,56.0,8.0,2013-05-11,2013-05-11,,Y,CIBIC Score,CIBICVAL,4.0,Xanomeline High Dose,Xan_Hi,2.0,81.0,79.0,65-80,2.0,M,Y,Y,Y,N,Y,Y,Y,2013-03-15,2013-06-17,,1.0,1.0,1.0,1.0
01-704-1093,10.0,10.0,CDISCPILOT01,ADQSCIBC,704,704,1093,WEEK 16,WEEK 16,Wk16,98.0,98.0,112.0,16.0,2013-06-20,2013-06-20,,Y,CIBIC Score,CIBICVAL,4.0,Xanomeline High Dose,Xan_Hi,2.0,81.0,79.0,65-80,2.0,M,Y,Y,Y,N,Y,Y,N,2013-03-15,2013-06-17,,1.0,1.0,1.0,1.0
01-704-1093,201.0,201.0,CDISCPILOT01,ADQSCIBC,704,704,1093,RETRIEVAL,RETRIEVAL,Wk24,286.0,286.0,168.0,24.0,2013-12-25,2013-12-25,,Y,CIBIC Score,CIBICVAL,6.0,Xanomeline High Dose,Xan_Hi,2.0,81.0,79.0,65-80,2.0,M,Y,Y,Y,N,Y,Y,N,2013-03-15,2013-06-17,,1.0,1.0,1.0,1.0
01-704-1114,8.0,8.0,CDISCPILOT01,ADQSCIBC,704,704,1114,WEEK 8,WEEK 8,Wk8,63.0,63.0,56.0,8.0,2013-03-26,2013-03-26,,Y,CIBIC Score,CIBICVAL,4.0,Xanomeline Low Dose,Xan_Lo,1.0,54.0,77.0,65-80,2.0,M,Y,Y,Y,Y,Y,Y,Y,2013-01-23,2013-07-07,,1.0,1.0,1.0,1.0
01-704-1114,10.0,10.0,CDISCPILOT01,ADQSCIBC,704,704,1114,WEEK 16,WEEK 16,Wk16,112.0,112.0,112.0,16.0,2013-05-14,2013-05-14,,Y,CIBIC Score,CIBICVAL,4.0,Xanomeline Low Dose,Xan_Lo,1.0,54.0,77.0,65-80,2.0,M,Y,Y,Y,Y,Y,Y,Y,2013-01-23,2013-07-07,,1.0,1.0,1.0,1.0
01-704-1114,12.0,12.0,CDISCPILOT01,ADQSCIBC,704,704,1114,WEEK 24,WEEK 24,Wk24,167.0,167.0,168.0,24.0,2013-07-08,2013-07-08,,Y,CIBIC Score,CIBICVAL,4.0,Xanomeline Low Dose,Xan_Lo,1.0,54.0,77.0,65-80,2.0,M,Y,Y,Y,Y,Y,Y,N,2013-01-23,2013-07-07,,1.0,1.0,1.0,1.0
01-704-1120,8.0,8.0,CDISCPILOT01,ADQSCIBC,704,704,1120,WEEK 8,WEEK 8,Wk8,57.0,57.0,56.0,8.0,2014-01-27,2014-01-27,,Y,CIBIC Score,CIBICVAL,4.0,Xanomeline Low Dose,Xan_Lo,1.0,54.0,71.0,65-80,2.0,F,Y,Y,Y,N,N,Y,Y,2013-12-02,2014-02-01,,1.0,1.0,1.0,1.0
01-704-1120,8.0,10.0,CDISCPILOT01,ADQSCIBC,704,704,1120,WEEK 16,WEEK 8,Wk16,57.0,57.0,56.0,16.0,2014-01-27,2014-01-27,LOCF,Y,CIBIC Score,CIBICVAL,4.0,Xanomeline Low Dose,Xan_Lo,1.0,54.0,71.0,65-80,2.0,F,Y,Y,Y,N,N,Y,Y,2013-12-02,2014-02-01,Y,,,,1.0
01-704-1120,8.0,12.0,CDISCPILOT01,ADQSCIBC,704,704,1120,WEEK 24,WEEK 8,Wk24,57.0,57.0,56.0,24.0,2014-01-27,2014-01-27,LOCF,Y,CIBIC Score,CIBICVAL,4.0,Xanomeline Low Dose,Xan_Lo,1.0,54.0,71.0,65-80,2.0,F,Y,Y,Y,N,N,Y,Y,2013-12-02,2014-02-01,Y,,,,1.0
01-704-1120,9.0,,CDISCPILOT01,ADQSCIBC,704,704,1120,WEEK 12,WEEK 12,,64.0,64.0,84.0,,2014-02-03,2014-02-03,,N,CIBIC Score,CIBICVAL,4.0,Xanomeline Low Dose,Xan_Lo,1.0,54.0,71.0,65-80,2.0,F,Y,Y,Y,N,N,Y,N,2013-12-02,2014-02-01,,1.0,,,
01-704-1127,8.0,8.0,CDISCPILOT01,ADQSCIBC,704,704,1127,WEEK 8,WEEK 8,Wk8,56.0,56.0,56.0,8.0,2013-11-26,2013-11-26,,Y,CIBIC Score,CIBICVAL,4.0,Placebo,Pbo,0.0,0.0,84.0,>80,3.0,F,Y,Y,Y,Y,Y,Y,Y,2013-10-02,2014-03-31,,1.0,1.0,1.0,1.0
01-704-1127,10.0,10.0,CDISCPILOT01,ADQSCIBC,704,704,1127,WEEK 16,WEEK 16,Wk16,112.0,112.0,112.0,16.0,2014-01-21,2014-01-21,,Y,CIBIC Score,CIBICVAL,5.0,Placebo,Pbo,0.0,0.0,84.0,>80,3.0,F,Y,Y,Y,Y,Y,Y,Y,2013-10-02,2014-03-31,,1.0,1.0,1.0,1.0
01-704-1127,12.0,12.0,CDISCPILOT01,ADQSCIBC,704,704,1127,WEEK 24,WEEK 24,Wk24,167.0,167.0,168.0,24.0,2014-03-17,2014-03-17,,Y,CIBIC Score,CIBICVAL,5.0,Placebo,Pbo,0.0,0.0,84.0,>80,3.0,F,Y,Y,Y,Y,Y,Y,Y,2013-10-02,2014-03-31,,1.0,1.0,1.0,1.0
01-704-1135,8.0,8.0,CDISCPILOT01,ADQSCIBC,704,704,1135,WEEK 8,WEEK 8,Wk8,56.0,56.0,56.0,8.0,2013-12-25,2013-12-25,,Y,CIBIC Score,CIBICVAL,4.0,Xanomeline Low Dose,Xan_Lo,1.0,54.0,74.0,65-80,2.0,F,Y,Y,Y,Y,Y,Y,Y,2013-10-31,2014-05-16,,1.0,1.0,1.0,1.0
01-704-1135,10.0,10.0,CDISCPILOT01,ADQSCIBC,704,704,1135,WEEK 16,WEEK 16,Wk16,112.0,112.0,112.0,16.0,2014-02-19,2014-02-19,,Y,CIBIC Score,CIBICVAL,4.0,Xanomeline Low Dose,Xan_Lo,1.0,54.0,74.0,65-80,2.0,F,Y,Y,Y,Y,Y,Y,Y,2013-10-31,2014-05-16,,1.0,1.0,1.0,1.0
01-704-1135,12.0,12.0,CDISCPILOT01,ADQSCIBC,704,704,1135,WEEK 24,WEEK 24,Wk24,183.0,183.0,168.0,24.0,2014-05-01,2014-05-01,,Y,CIBIC Score,CIBICVAL,6.0,Xanomeline Low Dose,Xan_Lo,1.0,54.0,74.0,65-80,2.0,F,Y,Y,Y,Y,Y,Y,Y,2013-10-31,2014-05-16,,1.0,1.0,1.0,1.0
01-704-1164,8.0,8.0,CDISCPILOT01,ADQSCIBC,704,704,1164,WEEK 8,WEEK 8,Wk8,58.0,58.0,56.0,8.0,2012-11-15,2012-11-15,,Y,CIBIC Score,CIBICVAL,4.0,Placebo,Pbo,0.0,0.0,67.0,65-80,2.0,F,Y,Y,Y,Y,Y,Y,Y,2012-09-19,2013-04-04,,1.0,1.0,1.0,1.0
01-704-1164,10.0,10.0,CDISCPILOT01,ADQSCIBC,704,704,1164,WEEK 16,WEEK 16,Wk16,118.0,118.0,112.0,16.0,2013-01-14,2013-01-14,,Y,CIBIC Score,CIBICVAL,5.0,Placebo,Pbo,0.0,0.0,67.0,65-80,2.0,F,Y,Y,Y,Y,Y,Y,Y,2012-09-19,2013-04-04,,1.0,1.0,1.0,1.0
01-704-1164,12.0,12.0,CDISCPILOT01,ADQSCIBC,704,704,1164,WEEK 24,WEEK 24,Wk24,180.0,180.0,168.0,24.0,2013-03-17,2013-03-17,,Y,CIBIC Score,CIBICVAL,5.0,Placebo,Pbo,0.0,0.0,67.0,65-80,2.0,F,Y,Y,Y,Y,Y,Y,Y,2012-09-19,2013-04-04,,1.0,1.0,1.0,1.0
01-704-1218,8.0,8.0,CDISCPILOT01,ADQSCIBC,704,704,1218,WEEK 8,WEEK 8,Wk8,57.0,57.0,56.0,8.0,2013-01-14,2013-01-14,,Y,CIBIC Score,CIBICVAL,5.0,Xanomeline Low Dose,Xan_Lo,1.0,54.0,81.0,>80,3.0,F,Y,Y,Y,Y,Y,Y,Y,2012-11-19,2013-05-27,,1.0,1.0,1.0,1.0
01-704-1218,10.0,10.0,CDISCPILOT01,ADQSCIBC,704,704,1218,WEEK 16,WEEK 16,Wk16,120.0,120.0,112.0,16.0,2013-03-18,2013-03-18,,Y,CIBIC Score,CIBICVAL,5.0,Xanomeline Low Dose,Xan_Lo,1.0,54.0,81.0,>80,3.0,F,Y,Y,Y,Y,Y,Y,Y,2012-11-19,2013-05-27,,1.0,1.0,1.0,1.0
01-704-1218,12.0,12.0,CDISCPILOT01,ADQSCIBC,704,704,1218,WEEK 24,WEEK 24,Wk24,176.0,176.0,168.0,24.0,2013-05-13,2013-05-13,,Y,CIBIC Score,CIBICVAL,5.0,Xanomeline Low Dose,Xan_Lo,1.0,54.0,81.0,>80,3.0,F,Y,Y,Y,Y,Y,Y,Y,2012-11-19,2013-05-27,,1.0,1.0,1.0,1.0
01-704-1233,10.0,10.0,CDISCPILOT01,ADQSCIBC,704,704,1233,WEEK 16,WEEK 16,Wk16,113.0,113.0,112.0,16.0,2013-07-11,2013-07-11,,Y,CIBIC Score,CIBICVAL,5.0,Placebo,Pbo,0.0,0.0,87.0,>80,3.0,F,Y,Y,Y,N,Y,Y,Y,2013-03-21,2013-07-14,,1.0,1.0,1.0,1.0
01-704-1233,10.0,12.0,CDISCPILOT01,ADQSCIBC,704,704,1233,WEEK 24,WEEK 16,Wk24,113.0,113.0,112.0,24.0,2013-07-11,2013-07-11,LOCF,Y,CIBIC Score,CIBICVAL,5.0,Placebo,Pbo,0.0,0.0,87.0,>80,3.0,F,Y,Y,Y,N,Y,Y,Y,2013-03-21,2013-07-14,Y,,,,1.0
01-704-1241,8.0,8.0,CDISCPILOT01,ADQSCIBC,704,704,1241,WEEK 8,WEEK 8,Wk8,68.0,68.0,56.0,8.0,2013-10-31,2013-10-31,,Y,CIBIC Score,CIBICVAL,4.0,Xanomeline High Dose,Xan_Hi,2.0,81.0,86.0,>80,3.0,M,Y,Y,Y,N,N,Y,N,2013-08-25,2013-10-09,,1.0,1.0,1.0,1.0
01-704-1241,8.0,10.0,CDISCPILOT01,ADQSCIBC,704,704,1241,WEEK 16,WEEK 8,Wk16,68.0,68.0,56.0,16.0,2013-10-31,2013-10-31,LOCF,Y,CIBIC Score,CIBICVAL,4.0,Xanomeline High Dose,Xan_Hi,2.0,81.0,86.0,>80,3.0,M,Y,Y,Y,N,N,Y,N,2013-08-25,2013-10-09,Y,,,,1.0
01-704-1241,8.0,12.0,CDISCPILOT01,ADQSCIBC,704,704,1241,WEEK 24,WEEK 8,Wk24,68.0,68.0,56.0,24.0,2013-10-31,2013-10-31,LOCF,Y,CIBIC Score,CIBICVAL,4.0,Xanomeline High Dose,Xan_Hi,2.0,81.0,86.0,>80,3.0,M,Y,Y,Y,N,N,Y,N,2013-08-25,2013-10-09,Y,,,,1.0
01-704-1260,8.0,8.0,CDISCPILOT01,ADQSCIBC,704,704,1260,WEEK 8,WEEK 8,Wk8,56.0,56.0,56.0,8.0,2012-10-24,2012-10-24,,Y,CIBIC Score,CIBICVAL,4.0,Placebo,Pbo,0.0,0.0,71.0,65-80,2.0,F,Y,Y,Y,N,N,Y,Y,2012-08-30,2012-11-04,,1.0,1.0,1.0,1.0
01-704-1260,8.0,10.0,CDISCPILOT01,ADQSCIBC,704,704,1260,WEEK 16,WEEK 8,Wk16,56.0,56.0,56.0,16.0,2012-10-24,2012-10-24,LOCF,Y,CIBIC Score,CIBICVAL,4.0,Placebo,Pbo,0.0,0.0,71.0,65-80,2.0,F,Y,Y,Y,N,N,Y,Y,2012-08-30,2012-11-04,Y,,,,1.0
01-704-1260,8.0,12.0,CDISCPILOT01,ADQSCIBC,704,704,1260,WEEK 24,WEEK 8,Wk24,56.0,56.0,56.0,24.0,2012-10-24,2012-10-24,LOCF,Y,CIBIC Score,CIBICVAL,4.0,Placebo,Pbo,0.0,0.0,71.0,65-80,2.0,F,Y,Y,Y,N,N,Y,Y,2012-08-30,2012-11-04,Y,,,,1.0
01-704-1266,8.0,8.0,CDISCPILOT01,ADQSCIBC,704,704,1266,WEEK 8,WEEK 8,Wk8,55.0,55.0,56.0,8.0,2013-12-06,2013-12-06,,Y,CIBIC Score,CIBICVAL,4.0,Xanomeline High Dose,Xan_Hi,2.0,81.0,82.0,>80,3.0,M,Y,Y,Y,N,N,Y,Y,2013-10-13,2013-12-06,,1.0,1.0,1.0,1.0
01-704-1266,8.0,10.0,CDISCPILOT01,ADQSCIBC,704,704,1266,WEEK 16,WEEK 8,Wk16,55.0,55.0,56.0,16.0,2013-12-06,2013-12-06,LOCF,Y,CIBIC Score,CIBICVAL,4.0,Xanomeline High Dose,Xan_Hi,2.0,81.0,82.0,>80,3.0,M,Y,Y,Y,N,N,Y,Y,2013-10-13,2013-12-06,Y,,,,1.0
01-704-1266,8.0,12.0,CDISCPILOT01,ADQSCIBC,704,704,1266,WEEK 24,WEEK 8,Wk24,55.0,55.0,56.0,24.0,2013-12-06,2013-12-06,LOCF,Y,CIBIC Score,CIBICVAL,4.0,Xanomeline High Dose,Xan_Hi,2.0,81.0,82.0,>80,3.0,M,Y,Y,Y,N,N,Y,Y,2013-10-13,2013-12-06,Y,,,,1.0
01-704-1325,8.0,8.0,CDISCPILOT01,ADQSCIBC,704,704,1325,WEEK 8,WEEK 8,Wk8,57.0,57.0,56.0,8.0,2014-06-18,2014-06-18,,Y,CIBIC Score,CIBICVAL,4.0,Xanomeline Low Dose,Xan_Lo,1.0,54.0,81.0,>80,3.0,M,Y,Y,Y,N,Y,Y,Y,2014-04-23,2014-07-04,,1.0,1.0,1.0,1.0
01-704-1325,10.0,10.0,CDISCPILOT01,ADQSCIBC,704,704,1325,WEEK 16,WEEK 16,Wk16,106.0,106.0,112.0,16.0,2014-08-06,2014-08-06,,Y,CIBIC Score,CIBICVAL,4.0,Xanomeline Low Dose,Xan_Lo,1.0,54.0,81.0,>80,3.0,M,Y,Y,Y,N,Y,Y,N,2014-04-23,2014-07-04,,1.0,1.0,1.0,1.0
01-704-1325,10.0,12.0,CDISCPILOT01,ADQSCIBC,704,704,1325,WEEK 24,WEEK 16,Wk24,106.0,106.0,112.0,24.0,2014-08-06,2014-08-06,LOCF,Y,CIBIC Score,CIBICVAL,4.0,Xanomeline Low Dose,Xan_Lo,1.0,54.0,81.0,>80,3.0,M,Y,Y,Y,N,Y,Y,N,2014-04-23,2014-07-04,Y,,,,1.0
01-704-1332,8.0,8.0,CDISCPILOT01,ADQSCIBC,704,704,1332,WEEK 8,WEEK 8,Wk8,57.0,57.0,56.0,8.0,2014-02-03,2014-02-03,,Y,CIBIC Score,CIBICVAL,4.0,Xanomeline High Dose,Xan_Hi,2.0,81.0,80.0,65-80,2.0,M,Y,Y,Y,N,N,Y,Y,2013-12-09,2014-02-14,,1.0,1.0,1.0,1.0
01-704-1332,8.0,10.0,CDISCPILOT01,ADQSCIBC,704,704,1332,WEEK 16,WEEK 8,Wk16,57.0,57.0,56.0,16.0,2014-02-03,2014-02-03,LOCF,Y,CIBIC Score,CIBICVAL,4.0,Xanomeline High Dose,Xan_Hi,2.0,81.0,80.0,65-80,2.0,M,Y,Y,Y,N,N,Y,Y,2013-12-09,2014-02-14,Y,,,,1.0
01-704-1332,8.0,12.0,CDISCPILOT01,ADQSCIBC,704,704,1332,WEEK 24,WEEK 8,Wk24,57.0,57.0,56.0,24.0,2014-02-03,2014-02-03,LOCF,Y,CIBIC Score,CIBICVAL,4.0,Xanomeline High Dose,Xan_Hi,2.0,81.0,80.0,65-80,2.0,M,Y,Y,Y,N,N,Y,Y,2013-12-09,2014-02-14,Y,,,,1.0
01-704-1351,8.0,8.0,CDISCPILOT01,ADQSCIBC,704,704,1351,WEEK 8,WEEK 8,Wk8,52.0,52.0,56.0,8.0,2013-12-02,2013-12-02,,Y,CIBIC Score,CIBICVAL,4.0,Placebo,Pbo,0.0,0.0,70.0,65-80,2.0,M,Y,Y,Y,Y,Y,Y,Y,2013-10-12,2014-04-18,,1.0,1.0,1.0,1.0
01-704-1351,10.0,10.0,CDISCPILOT01,ADQSCIBC,704,704,1351,WEEK 16,WEEK 16,Wk16,107.0,107.0,112.0,16.0,2014-01-26,2014-01-26,,Y,CIBIC Score,CIBICVAL,4.0,Placebo,Pbo,0.0,0.0,70.0,65-80,2.0,M,Y,Y,Y,Y,Y,Y,Y,2013-10-12,2014-04-18,,1.0,1.0,1.0,1.0
01-704-1351,12.0,12.0,CDISCPILOT01,ADQSCIBC,704,704,1351,WEEK 24,WEEK 24,Wk24,175.0,175.0,168.0,24.0,2014-04-04,2014-04-04,,Y,CIBIC Score,CIBICVAL,5.0,Placebo,Pbo,0.0,0.0,70.0,65-80,2.0,M,Y,Y,Y,Y,Y,Y,Y,2013-10-12,2014-04-18,,1.0,1.0,1.0,1.0
01-704-1388,8.0,8.0,CDISCPILOT01,ADQSCIBC,704,704,1388,WEEK 8,WEEK 8,Wk8,55.0,55.0,56.0,8.0,2013-01-30,2013-01-30,,Y,CIBIC Score,CIBICVAL,4.0,Placebo,Pbo,0.0,0.0,81.0,>80,3.0,M,Y,Y,Y,Y,Y,Y,Y,2012-12-07,2013-06-11,,1.0,1.0,1.0,1.0
01-704-1388,10.0,10.0,CDISCPILOT01,ADQSCIBC,704,704,1388,WEEK 16,WEEK 16,Wk16,111.0,111.0,112.0,16.0,2013-03-27,2013-03-27,,Y,CIBIC Score,CIBICVAL,4.0,Placebo,Pbo,0.0,0.0,81.0,>80,3.0,M,Y,Y,Y,Y,Y,Y,Y,2012-12-07,2013-06-11,,1.0,1.0,1.0,1.0
01-704-1388,12.0,12.0,CDISCPILOT01,ADQSCIBC,704,704,1388,WEEK 24,WEEK 24,Wk24,168.0,168.0,168.0,24.0,2013-05-23,2013-05-23,,Y,CIBIC Score,CIBICVAL,4.0,Placebo,Pbo,0.0,0.0,81.0,>80,3.0,M,Y,Y,Y,Y,Y,Y,Y,2012-12-07,2013-06-11,,1.0,1.0,1.0,1.0
01-704-1435,8.0,8.0,CDISCPILOT01,ADQSCIBC,704,704,1435,WEEK 8,WEEK 8,Wk8,57.0,57.0,56.0,8.0,2013-01-12,2013-01-12,,Y,CIBIC Score,CIBICVAL,4.0,Placebo,Pbo,0.0,0.0,74.0,65-80,2.0,M,Y,Y,Y,N,N,Y,N,2012-11-17,2013-01-09,,1.0,1.0,1.0,1.0
01-704-1435,8.0,10.0,CDISCPILOT01,ADQSCIBC,704,704,1435,WEEK 16,WEEK 8,Wk16,57.0,57.0,56.0,16.0,2013-01-12,2013-01-12,LOCF,Y,CIBIC Score,CIBICVAL,4.0,Placebo,Pbo,0.0,0.0,74.0,65-80,2.0,M,Y,Y,Y,N,N,Y,N,2012-11-17,2013-01-09,Y,,,,1.0
01-704-1435,8.0,12.0,CDISCPILOT01,ADQSCIBC,704,704,1435,WEEK 24,WEEK 8,Wk24,57.0,57.0,56.0,24.0,2013-01-12,2013-01-12,LOCF,Y,CIBIC Score,CIBICVAL,4.0,Placebo,Pbo,0.0,0.0,74.0,65-80,2.0,M,Y,Y,Y,N,N,Y,N,2012-11-17,2013-01-09,Y,,,,1.0
01-704-1445,8.0,8.0,CDISCPILOT01,ADQSCIBC,704,704,1445,WEEK 8,WEEK 8,Wk8,60.0,60.0,56.0,8.0,2014-07-09,2014-07-09,,Y,CIBIC Score,CIBICVAL,6.0,Placebo,Pbo,0.0,0.0,75.0,65-80,2.0,M,Y,Y,Y,Y,Y,Y,Y,2014-05-11,2014-11-01,,1.0,1.0,1.0,1.0
01-704-1445,10.0,10.0,CDISCPILOT01,ADQSCIBC,704,704,1445,WEEK 16,WEEK 16,Wk16,116.0,116.0,112.0,16.0,2014-09-03,2014-09-03,,Y,CIBIC Score,CIBICVAL,5.0,Placebo,Pbo,0.0,0.0,75.0,65-80,2.0,M,Y,Y,Y,Y,Y,Y,Y,2014-05-11,2014-11-01,,1.0,1.0,1.0,1.0
01-704-1445,10.0,12.0,CDISCPILOT01,ADQSCIBC,704,704,1445,WEEK 24,WEEK 16,Wk24,116.0,116.0,112.0,24.0,2014-09-03,2014-09-03,LOCF,Y,CIBIC Score,CIBICVAL,5.0,Placebo,Pbo,0.0,0.0,75.0,65-80,2.0,M,Y,Y,Y,Y,Y,Y,Y,2014-05-11,2014-11-01,Y,,,,1.0
01-705-1031,8.0,8.0,CDISCPILOT01,ADQSCIBC,705,705,1031,WEEK 8,WEEK 8,Wk8,58.0,58.0,56.0,8.0,2014-01-23,2014-01-23,,Y,CIBIC Score,CIBICVAL,4.0,Xanomeline Low Dose,Xan_Lo,1.0,54.0,56.0,<65,1.0,F,Y,Y,Y,Y,Y,Y,Y,2013-11-27,2014-05-11,,1.0,1.0,1.0,1.0
01-705-1031,10.0,10.0,CDISCPILOT01,ADQSCIBC,705,705,1031,WEEK 16,WEEK 16,Wk16,114.0,114.0,112.0,16.0,2014-03-20,2014-03-20,,Y,CIBIC Score,CIBICVAL,4.0,Xanomeline Low Dose,Xan_Lo,1.0,54.0,56.0,<65,1.0,F,Y,Y,Y,Y,Y,Y,Y,2013-11-27,2014-05-11,,1.0,1.0,1.0,1.0
01-705-1031,12.0,12.0,CDISCPILOT01,ADQSCIBC,705,705,1031,WEEK 24,WEEK 24,Wk24,166.0,166.0,168.0,24.0,2014-05-11,2014-05-11,,Y,CIBIC Score,CIBICVAL,4.0,Xanomeline Low Dose,Xan_Lo,1.0,54.0,56.0,<65,1.0,F,Y,Y,Y,Y,Y,Y,Y,2013-11-27,2014-05-11,,1.0,1.0,1.0,1.0
01-705-1059,8.0,8.0,CDISCPILOT01,ADQSCIBC,705,705,1059,WEEK 8,WEEK 8,Wk8,60.0,60.0,56.0,8.0,2013-10-03,2013-10-03,,Y,CIBIC Score,CIBICVAL,3.0,Placebo,Pbo,0.0,0.0,66.0,65-80,2.0,F,Y,Y,Y,N,Y,Y,Y,2013-08-05,2013-12-05,,1.0,1.0,1.0,1.0
01-705-1059,10.0,10.0,CDISCPILOT01,ADQSCIBC,705,705,1059,WEEK 16,WEEK 16,Wk16,123.0,123.0,112.0,16.0,2013-12-05,2013-12-05,,Y,CIBIC Score,CIBICVAL,3.0,Placebo,Pbo,0.0,0.0,66.0,65-80,2.0,F,Y,Y,Y,N,Y,Y,Y,2013-08-05,2013-12-05,,1.0,1.0,1.0,1.0
01-705-1059,201.0,201.0,CDISCPILOT01,ADQSCIBC,705,705,1059,RETRIEVAL,RETRIEVAL,Wk24,186.0,186.0,168.0,24.0,2014-02-06,2014-02-06,,Y,CIBIC Score,CIBICVAL,3.0,Placebo,Pbo,0.0,0.0,66.0,65-80,2.0,F,Y,Y,Y,N,Y,Y,N,2013-08-05,2013-12-05,,1.0,1.0,1.0,1.0
01-705-1186,5.0,,CDISCPILOT01,ADQSCIBC,705,705,1186,WEEK 4,WEEK 4,,31.0,31.0,28.0,,2014-02-07,2014-02-07,,N,CIBIC Score,CIBICVAL,4.0,Placebo,Pbo,0.0,0.0,84.0,>80,3.0,F,Y,Y,N,N,N,N,N,2014-01-08,2014-01-26,,1.0,,,
01-705-1186,5.0,8.0,CDISCPILOT01,ADQSCIBC,705,705,1186,WEEK 8,WEEK 4,Wk8,31.0,31.0,28.0,8.0,2014-02-07,2014-02-07,,Y,CIBIC Score,CIBICVAL,4.0,Placebo,Pbo,0.0,0.0,84.0,>80,3.0,F,Y,Y,N,N,N,N,N,2014-01-08,2014-01-26,Y,,,1.0,1.0
01-705-1186,5.0,10.0,CDISCPILOT01,ADQSCIBC,705,705,1186,WEEK 16,WEEK 4,Wk16,31.0,31.0,28.0,16.0,2014-02-07,2014-02-07,LOCF,Y,CIBIC Score,CIBICVAL,4.0,Placebo,Pbo,0.0,0.0,84.0,>80,3.0,F,Y,Y,N,N,N,N,N,2014-01-08,2014-01-26,Y,,,,1.0
01-705-1186,5.0,12.0,CDISCPILOT01,ADQSCIBC,705,705,1186,WEEK 24,WEEK 4,Wk24,31.0,31.0,28.0,24.0,2014-02-07,2014-02-07,LOCF,Y,CIBIC Score,CIBICVAL,4.0,Placebo,Pbo,0.0,0.0,84.0,>80,3.0,F,Y,Y,N,N,N,N,N,2014-01-08,2014-01-26,Y,,,,1.0
01-705-1199,4.0,,CDISCPILOT01,ADQSCIBC,705,705,1199,WEEK 2,WEEK 2,,14.0,14.0,14.0,,2013-09-29,2013-09-29,,N,CIBIC Score,CIBICVAL,4.0,Xanomeline Low Dose,Xan_Lo,1.0,54.0,87.0,>80,3.0,M,Y,Y,Y,N,N,N,N,2013-09-16,2013-09-28,,1.0,,,
01-705-1199,4.0,8.0,CDISCPILOT01,ADQSCIBC,705,705,1199,WEEK 8,WEEK 2,Wk8,14.0,14.0,14.0,8.0,2013-09-29,2013-09-29,,Y,CIBIC Score,CIBICVAL,4.0,Xanomeline Low Dose,Xan_Lo,1.0,54.0,87.0,>80,3.0,M,Y,Y,Y,N,N,N,N,2013-09-16,2013-09-28,Y,,,1.0,1.0
01-705-1199,4.0,10.0,CDISCPILOT01,ADQSCIBC,705,705,1199,WEEK 16,WEEK 2,Wk16,14.0,14.0,14.0,16.0,2013-09-29,2013-09-29,LOCF,Y,CIBIC Score,CIBICVAL,4.0,Xanomeline Low Dose,Xan_Lo,1.0,54.0,87.0,>80,3.0,M,Y,Y,Y,N,N,N,N,2013-09-16,2013-09-28,Y,,,,1.0
01-705-1199,4.0,12.0,CDISCPILOT01,ADQSCIBC,705,705,1199,WEEK 24,WEEK 2,Wk24,14.0,14.0,14.0,24.0,2013-09-29,2013-09-29,LOCF,Y,CIBIC Score,CIBICVAL,4.0,Xanomeline Low Dose,Xan_Lo,1.0,54.0,87.0,>80,3.0,M,Y,Y,Y,N,N,N,N,2013-09-16,2013-09-28,Y,,,,1.0
01-705-1280,8.0,8.0,CDISCPILOT01,ADQSCIBC,705,705,1280,WEEK 8,WEEK 8,Wk8,64.0,64.0,56.0,8.0,2014-03-21,2014-03-21,,Y,CIBIC Score,CIBICVAL,4.0,Xanomeline High Dose,Xan_Hi,2.0,81.0,56.0,<65,1.0,F,Y,Y,Y,Y,Y,Y,Y,2014-01-17,2014-07-25,,1.0,1.0,1.0,1.0
01-705-1280,10.0,10.0,CDISCPILOT01,ADQSCIBC,705,705,1280,WEEK 16,WEEK 16,Wk16,120.0,120.0,112.0,16.0,2014-05-16,2014-05-16,,Y,CIBIC Score,CIBICVAL,4.0,Xanomeline High Dose,Xan_Hi,2.0,81.0,56.0,<65,1.0,F,Y,Y,Y,Y,Y,Y,Y,2014-01-17,2014-07-25,,1.0,1.0,1.0,1.0
01-705-1280,12.0,12.0,CDISCPILOT01,ADQSCIBC,705,705,1280,WEEK 24,WEEK 24,Wk24,176.0,176.0,168.0,24.0,2014-07-11,2014-07-11,,Y,CIBIC Score,CIBICVAL,4.0,Xanomeline High Dose,Xan_Hi,2.0,81.0,56.0,<65,1.0,F,Y,Y,Y,Y,Y,Y,Y,2014-01-17,2014-07-25,,1.0,1.0,1.0,1.0
01-705-1281,8.0,8.0,CDISCPILOT01,ADQSCIBC,705,705,1281,WEEK 8,WEEK 8,Wk8,55.0,55.0,56.0,8.0,2014-01-21,2014-01-21,,Y,CIBIC Score,CIBICVAL,4.0,Xanomeline High Dose,Xan_Hi,2.0,81.0,73.0,65-80,2.0,F,Y,Y,Y,N,Y,Y,Y,2013-11-28,2014-02-27,,1.0,1.0,1.0,1.0
01-705-1281,10.0,10.0,CDISCPILOT01,ADQSCIBC,705,705,1281,WEEK 16,WEEK 16,Wk16,110.0,110.0,112.0,16.0,2014-03-17,2014-03-17,,Y,CIBIC Score,CIBICVAL,4.0,Xanomeline High Dose,Xan_Hi,2.0,81.0,73.0,65-80,2.0,F,Y,Y,Y,N,Y,Y,N,2013-11-28,2014-02-27,,1.0,1.0,1.0,1.0
01-705-1281,10.0,12.0,CDISCPILOT01,ADQSCIBC,705,705,1281,WEEK 24,WEEK 16,Wk24,110.0,110.0,112.0,24.0,2014-03-17,2014-03-17,LOCF,Y,CIBIC Score,CIBICVAL,4.0,Xanomeline High Dose,Xan_Hi,2.0,81.0,73.0,65-80,2.0,F,Y,Y,Y,N,Y,Y,N,2013-11-28,2014-02-27,Y,,,,1.0
01-705-1282,8.0,8.0,CDISCPILOT01,ADQSCIBC,705,705,1282,WEEK 8,WEEK 8,Wk8,57.0,57.0,56.0,8.0,2013-02-20,2013-02-20,,Y,CIBIC Score,CIBICVAL,4.0,Placebo,Pbo,0.0,0.0,70.0,65-80,2.0,F,Y,Y,Y,Y,Y,Y,Y,2012-12-26,2013-06-24,,1.0,1.0,1.0,1.0
01-705-1282,10.0,10.0,CDISCPILOT01,ADQSCIBC,705,705,1282,WEEK 16,WEEK 16,Wk16,112.0,112.0,112.0,16.0,2013-04-16,2013-04-16,,Y,CIBIC Score,CIBICVAL,4.0,Placebo,Pbo,0.0,0.0,70.0,65-80,2.0,F,Y,Y,Y,Y,Y,Y,Y,2012-12-26,2013-06-24,,1.0,1.0,1.0,1.0
01-705-1282,12.0,12.0,CDISCPILOT01,ADQSCIBC,705,705,1282,WEEK 24,WEEK 24,Wk24,168.0,168.0,168.0,24.0,2013-06-11,2013-06-11,,Y,CIBIC Score,CIBICVAL,4.0,Placebo,Pbo,0.0,0.0,70.0,65-80,2.0,F,Y,Y,Y,Y,Y,Y,Y,2012-12-26,2013-06-24,,1.0,1.0,1.0,1.0
01-705-1292,8.0,8.0,CDISCPILOT01,ADQSCIBC,705,705,1292,WEEK 8,WEEK 8,Wk8,81.0,81.0,56.0,8.0,2014-01-02,2014-01-02,,Y,CIBIC Score,CIBICVAL,4.0,Xanomeline Low Dose,Xan_Lo,1.0,54.0,60.0,<65,1.0,F,Y,Y,Y,Y,Y,Y,Y,2013-10-14,2014-05-13,,1.0,1.0,1.0,1.0
01-705-1292,8.0,10.0,CDISCPILOT01,ADQSCIBC,705,705,1292,WEEK 16,WEEK 8,Wk16,81.0,81.0,56.0,16.0,2014-01-02,2014-01-02,LOCF,Y,CIBIC Score,CIBICVAL,4.0,Xanomeline Low Dose,Xan_Lo,1.0,54.0,60.0,<65,1.0,F,Y,Y,Y,Y,Y,Y,Y,2013-10-14,2014-05-13,Y,,,,1.0
01-705-1292,10.0,10.0,CDISCPILOT01,ADQSCIBC,705,705,1292,WEEK 16,WEEK 16,,141.0,141.0,112.0,16.0,2014-03-03,2014-03-03,,N,CIBIC Score,CIBICVAL,4.0,Xanomeline Low Dose,Xan_Lo,1.0,54.0,60.0,<65,1.0,F,Y,Y,Y,Y,Y,Y,Y,2013-10-14,2014-05-13,,1.0,1.0,,
01-705-1292,10.0,12.0,CDISCPILOT01,ADQSCIBC,705,705,1292,WEEK 24,WEEK 16,Wk24,141.0,141.0,112.0,24.0,2014-03-03,2014-03-03,,Y,CIBIC Score,CIBICVAL,4.0,Xanomeline Low Dose,Xan_Lo,1.0,54.0,60.0,<65,1.0,F,Y,Y,Y,Y,Y,Y,Y,2013-10-14,2014-05-13,Y,,,1.0,1.0
01-705-1292,12.0,12.0,CDISCPILOT01,ADQSCIBC,705,705,1292,WEEK 24,WEEK 24,,197.0,197.0,168.0,24.0,2014-04-28,2014-04-28,,N,CIBIC Score,CIBICVAL,3.0,Xanomeline Low Dose,Xan_Lo,1.0,54.0,60.0,<65,1.0,F,Y,Y,Y,Y,Y,Y,Y,2013-10-14,2014-05-13,,1.0,1.0,,
01-705-1303,8.0,8.0,CDISCPILOT01,ADQSCIBC,705,705,1303,WEEK 8,WEEK 8,Wk8,57.0,57.0,56.0,8.0,2014-02-10,2014-02-10,,Y,CIBIC Score,CIBICVAL,4.0,Xanomeline High Dose,Xan_Hi,2.0,81.0,72.0,65-80,2.0,M,Y,Y,Y,N,Y,Y,Y,2013-12-16,2014-06-02,,1.0,1.0,1.0,1.0
01-705-1303,10.0,10.0,CDISCPILOT01,ADQSCIBC,705,705,1303,WEEK 16,WEEK 16,Wk16,113.0,113.0,112.0,16.0,2014-04-07,2014-04-07,,Y,CIBIC Score,CIBICVAL,4.0,Xanomeline High Dose,Xan_Hi,2.0,81.0,72.0,65-80,2.0,M,Y,Y,Y,N,Y,Y,Y,2013-12-16,2014-06-02,,1.0,1.0,1.0,1.0
01-705-1303,10.0,12.0,CDISCPILOT01,ADQSCIBC,705,705,1303,WEEK 24,WEEK 16,Wk24,113.0,113.0,112.0,24.0,2014-04-07,2014-04-07,LOCF,Y,CIBIC Score,CIBICVAL,4.0,Xanomeline High Dose,Xan_Hi,2.0,81.0,72.0,65-80,2.0,M,Y,Y,Y,N,Y,Y,Y,2013-12-16,2014-06-02,Y,,,,1.0
01-705-1310,8.0,8.0,CDISCPILOT01,ADQSCIBC,705,705,1310,WEEK 8,WEEK 8,Wk8,55.0,55.0,56.0,8.0,2013-12-26,2013-12-26,,Y,CIBIC Score,CIBICVAL,4.0,Xanomeline High Dose,Xan_Hi,2.0,81.0,74.0,65-80,2.0,F,Y,Y,Y,N,N,Y,Y,2013-11-02,2014-01-23,,1.0,1.0,1.0,1.0
01-705-1310,8.0,10.0,CDISCPILOT01,ADQSCIBC,705,705,1310,WEEK 16,WEEK 8,Wk16,55.0,55.0,56.0,16.0,2013-12-26,2013-12-26,LOCF,Y,CIBIC Score,CIBICVAL,4.0,Xanomeline High Dose,Xan_Hi,2.0,81.0,74.0,65-80,2.0,F,Y,Y,Y,N,N,Y,Y,2013-11-02,2014-01-23,Y,,,,1.0
01-705-1310,8.0,12.0,CDISCPILOT01,ADQSCIBC,705,705,1310,WEEK 24,WEEK 8,Wk24,55.0,55.0,56.0,24.0,2013-12-26,2013-12-26,LOCF,Y,CIBIC Score,CIBICVAL,4.0,Xanomeline High Dose,Xan_Hi,2.0,81.0,74.0,65-80,2.0,F,Y,Y,Y,N,N,Y,Y,2013-11-02,2014-01-23,Y,,,,1.0
01-705-1310,9.0,,CDISCPILOT01,ADQSCIBC,705,705,1310,WEEK 12,WEEK 12,,83.0,83.0,84.0,,2014-01-23,2014-01-23,,N,CIBIC Score,CIBICVAL,3.0,Xanomeline High Dose,Xan_Hi,2.0,81.0,74.0,65-80,2.0,F,Y,Y,Y,N,N,Y,Y,2013-11-02,2014-01-23,,1.0,,,
01-705-1349,8.0,8.0,CDISCPILOT01,ADQSCIBC,705,705,1349,WEEK 8,WEEK 8,Wk8,53.0,53.0,56.0,8.0,2013-05-01,2013-05-01,,Y,CIBIC Score,CIBICVAL,3.0,Placebo,Pbo,0.0,0.0,86.0,>80,3.0,F,Y,Y,Y,Y,Y,Y,Y,2013-03-10,2013-09-08,,1.0,1.0,1.0,1.0
01-705-1349,10.0,10.0,CDISCPILOT01,ADQSCIBC,705,705,1349,WEEK 16,WEEK 16,Wk16,108.0,108.0,112.0,16.0,2013-06-25,2013-06-25,,Y,CIBIC Score,CIBICVAL,4.0,Placebo,Pbo,0.0,0.0,86.0,>80,3.0,F,Y,Y,Y,Y,Y,Y,Y,2013-03-10,2013-09-08,,1.0,1.0,1.0,1.0
01-705-1349,12.0,12.0,CDISCPILOT01,ADQSCIBC,705,705,1349,WEEK 24,WEEK 24,Wk24,169.0,169.0,168.0,24.0,2013-08-25,2013-08-25,,Y,CIBIC Score,CIBICVAL,3.0,Placebo,Pbo,0.0,0.0,86.0,>80,3.0,F,Y,Y,Y,Y,Y,Y,Y,2013-03-10,2013-09-08,,1.0,1.0,1.0,1.0
01-705-1393,8.0,8.0,CDISCPILOT01,ADQSCIBC,705,705,1393,WEEK 8,WEEK 8,Wk8,57.0,57.0,56.0,8.0,2012-11-02,2012-11-02,,Y,CIBIC Score,CIBICVAL,4.0,Xanomeline Low Dose,Xan_Lo,1.0,54.0,84.0,>80,3.0,F,Y,Y,Y,N,Y,Y,Y,2012-09-07,2013-02-01,,1.0,1.0,1.0,1.0
01-705-1393,10.0,10.0,CDISCPILOT01,ADQSCIBC,705,705,1393,WEEK 16,WEEK 16,Wk16,118.0,118.0,112.0,16.0,2013-01-02,2013-01-02,,Y,CIBIC Score,CIBICVAL,4.0,Xanomeline Low Dose,Xan_Lo,1.0,54.0,84.0,>80,3.0,F,Y,Y,Y,N,Y,Y,Y,2012-09-07,2013-02-01,,1.0,1.0,1.0,1.0
01-705-1393,11.0,,CDISCPILOT01,ADQSCIBC,705,705,1393,WEEK 20,WEEK 20,,167.0,167.0,140.0,,2013-02-20,2013-02-20,,N,CIBIC Score,CIBICVAL,5.0,Xanomeline Low Dose,Xan_Lo,1.0,54.0,84.0,>80,3.0,F,Y,Y,Y,N,Y,Y,N,2012-09-07,2013-02-01,,1.0,,,
01-705-1393,11.0,12.0,CDISCPILOT01,ADQSCIBC,705,705,1393,WEEK 24,WEEK 20,Wk24,167.0,167.0,140.0,24.0,2013-02-20,2013-02-20,,Y,CIBIC Score,CIBICVAL,5.0,Xanomeline Low Dose,Xan_Lo,1.0,54.0,84.0,>80,3.0,F,Y,Y,Y,N,Y,Y,N,2012-09-07,2013-02-01,Y,,,1.0,1.0
01-705-1431,8.0,8.0,CDISCPILOT01,ADQSCIBC,705,705,1431,WEEK 8,WEEK 8,Wk8,60.0,60.0,56.0,8.0,2013-08-21,2013-08-21,,Y,CIBIC Score,CIBICVAL,4.0,Xanomeline Low Dose,Xan_Lo,1.0,54.0,68.0,65-80,2.0,F,Y,Y,Y,Y,Y,Y,Y,2013-06-23,2013-12-19,,1.0,1.0,1.0,1.0
01-705-1431,10.0,10.0,CDISCPILOT01,ADQSCIBC,705,705,1431,WEEK 16,WEEK 16,Wk16,117.0,117.0,112.0,16.0,2013-10-17,2013-10-17,,Y,CIBIC Score,CIBICVAL,3.0,Xanomeline Low Dose,Xan_Lo,1.0,54.0,68.0,65-80,2.0,F,Y,Y,Y,Y,Y,Y,Y,2013-06-23,2013-12-19,,1.0,1.0,1.0,1.0
01-705-1431,12.0,12.0,CDISCPILOT01,ADQSCIBC,705,705,1431,WEEK 24,WEEK 24,Wk24,166.0,166.0,168.0,24.0,2013-12-05,2013-12-05,,Y,CIBIC Score,CIBICVAL,3.0,Xanomeline Low Dose,Xan_Lo,1.0,54.0,68.0,65-80,2.0,F,Y,Y,Y,Y,Y,Y,Y,2013-06-23,2013-12-19,,1.0,1.0,1.0,1.0
01-706-1041,8.0,8.0,CDISCPILOT01,ADQSCIBC,706,900,1041,WEEK 8,WEEK 8,Wk8,64.0,64.0,56.0,8.0,2014-03-04,2014-03-04,,Y,CIBIC Score,CIBICVAL,4.0,Placebo,Pbo,0.0,0.0,64.0,<65,1.0,F,Y,Y,Y,Y,Y,Y,Y,2013-12-31,2014-07-28,,1.0,1.0,1.0,1.0
01-706-1041,10.0,10.0,CDISCPILOT01,ADQSCIBC,706,900,1041,WEEK 16,WEEK 16,Wk16,127.0,127.0,112.0,16.0,2014-05-06,2014-05-06,,Y,CIBIC Score,CIBICVAL,5.0,Placebo,Pbo,0.0,0.0,64.0,<65,1.0,F,Y,Y,Y,Y,Y,Y,Y,2013-12-31,2014-07-28,,1.0,1.0,1.0,1.0
01-706-1041,12.0,12.0,CDISCPILOT01,ADQSCIBC,706,900,1041,WEEK 24,WEEK 24,Wk24,197.0,197.0,168.0,24.0,2014-07-15,2014-07-15,,Y,CIBIC Score,CIBICVAL,4.0,Placebo,Pbo,0.0,0.0,64.0,<65,1.0,F,Y,Y,Y,Y,Y,Y,Y,2013-12-31,2014-07-28,,1.0,1.0,1.0,1.0
01-706-1049,7.0,,CDISCPILOT01,ADQSCIBC,706,900,1049,WEEK 6,WEEK 6,,43.0,43.0,42.0,,2013-06-25,2013-06-25,,N,CIBIC Score,CIBICVAL,4.0,Xanomeline High Dose,Xan_Hi,2.0,81.0,60.0,<65,1.0,F,Y,Y,Y,N,N,N,N,2013-05-14,2013-06-18,,1.0,,,
01-706-1049,7.0,8.0,CDISCPILOT01,ADQSCIBC,706,900,1049,WEEK 8,WEEK 6,Wk8,43.0,43.0,42.0,8.0,2013-06-25,2013-06-25,,Y,CIBIC Score,CIBICVAL,4.0,Xanomeline High Dose,Xan_Hi,2.0,81.0,60.0,<65,1.0,F,Y,Y,Y,N,N,N,N,2013-05-14,2013-06-18,Y,,,1.0,1.0
01-706-1049,7.0,10.0,CDISCPILOT01,ADQSCIBC,706,900,1049,WEEK 16,WEEK 6,Wk16,43.0,43.0,42.0,16.0,2013-06-25,2013-06-25,LOCF,Y,CIBIC Score,CIBICVAL,4.0,Xanomeline High Dose,Xan_Hi,2.0,81.0,60.0,<65,1.0,F,Y,Y,Y,N,N,N,N,2013-05-14,2013-06-18,Y,,,,1.0
01-706-1049,7.0,12.0,CDISCPILOT01,ADQSCIBC,706,900,1049,WEEK 24,WEEK 6,Wk24,43.0,43.0,42.0,24.0,2013-06-25,2013-06-25,LOCF,Y,CIBIC Score,CIBICVAL,4.0,Xanomeline High Dose,Xan_Hi,2.0,81.0,60.0,<65,1.0,F,Y,Y,Y,N,N,N,N,2013-05-14,2013-06-18,Y,,,,1.0
01-706-1384,4.0,,CDISCPILOT01,ADQSCIBC,706,900,1384,WEEK 2,WEEK 2,,15.0,15.0,14.0,,2012-09-29,2012-09-29,,N,CIBIC Score,CIBICVAL,4.0,Xanomeline Low Dose,Xan_Lo,1.0,54.0,74.0,65-80,2.0,F,Y,Y,Y,N,N,N,N,2012-09-15,2012-09-24,,1.0,,,
01-706-1384,4.0,8.0,CDISCPILOT01,ADQSCIBC,706,900,1384,WEEK 8,WEEK 2,Wk8,15.0,15.0,14.0,8.0,2012-09-29,2012-09-29,,Y,CIBIC Score,CIBICVAL,4.0,Xanomeline Low Dose,Xan_Lo,1.0,54.0,74.0,65-80,2.0,F,Y,Y,Y,N,N,N,N,2012-09-15,2012-09-24,Y,,,1.0,1.0
01-706-1384,4.0,10.0,CDISCPILOT01,ADQSCIBC,706,900,1384,WEEK 16,WEEK 2,Wk16,15.0,15.0,14.0,16.0,2012-09-29,2012-09-29,LOCF,Y,CIBIC Score,CIBICVAL,4.0,Xanomeline Low Dose,Xan_Lo,1.0,54.0,74.0,65-80,2.0,F,Y,Y,Y,N,N,N,N,2012-09-15,2012-09-24,Y,,,,1.0
01-706-1384,4.0,12.0,CDISCPILOT01,ADQSCIBC,706,900,1384,WEEK 24,WEEK 2,Wk24,15.0,15.0,14.0,24.0,2012-09-29,2012-09-29,LOCF,Y,CIBIC Score,CIBICVAL,4.0,Xanomeline Low Dose,Xan_Lo,1.0,54.0,74.0,65-80,2.0,F,Y,Y,Y,N,N,N,N,2012-09-15,2012-09-24,Y,,,,1.0
01-707-1037,4.0,,CDISCPILOT01,ADQSCIBC,707,900,1037,WEEK 2,WEEK 2,,20.0,20.0,14.0,,2014-01-08,2014-01-08,,N,CIBIC Score,CIBICVAL,4.0,Xanomeline Low Dose,Xan_Lo,1.0,54.0,72.0,65-80,2.0,F,Y,Y,Y,N,N,N,N,2013-12-20,2013-12-24,,1.0,,,
01-707-1037,4.0,8.0,CDISCPILOT01,ADQSCIBC,707,900,1037,WEEK 8,WEEK 2,Wk8,20.0,20.0,14.0,8.0,2014-01-08,2014-01-08,,Y,CIBIC Score,CIBICVAL,4.0,Xanomeline Low Dose,Xan_Lo,1.0,54.0,72.0,65-80,2.0,F,Y,Y,Y,N,N,N,N,2013-12-20,2013-12-24,Y,,,1.0,1.0
01-707-1037,4.0,10.0,CDISCPILOT01,ADQSCIBC,707,900,1037,WEEK 16,WEEK 2,Wk16,20.0,20.0,14.0,16.0,2014-01-08,2014-01-08,LOCF,Y,CIBIC Score,CIBICVAL,4.0,Xanomeline Low Dose,Xan_Lo,1.0,54.0,72.0,65-80,2.0,F,Y,Y,Y,N,N,N,N,2013-12-20,2013-12-24,Y,,,,1.0
01-707-1037,4.0,12.0,CDISCPILOT01,ADQSCIBC,707,900,1037,WEEK 24,WEEK 2,Wk24,20.0,20.0,14.0,24.0,2014-01-08,2014-01-08,LOCF,Y,CIBIC Score,CIBICVAL,4.0,Xanomeline Low Dose,Xan_Lo,1.0,54.0,72.0,65-80,2.0,F,Y,Y,Y,N,N,N,N,2013-12-20,2013-12-24,Y,,,,1.0
01-707-1206,8.0,8.0,CDISCPILOT01,ADQSCIBC,707,900,1206,WEEK 8,WEEK 8,Wk8,57.0,57.0,56.0,8.0,2013-12-23,2013-12-23,,Y,CIBIC Score,CIBICVAL,4.0,Placebo,Pbo,0.0,0.0,65.0,65-80,2.0,M,Y,Y,Y,Y,Y,Y,Y,2013-10-28,2014-04-26,,1.0,1.0,1.0,1.0
01-707-1206,10.0,10.0,CDISCPILOT01,ADQSCIBC,707,900,1206,WEEK 16,WEEK 16,Wk16,112.0,112.0,112.0,16.0,2014-02-16,2014-02-16,,Y,CIBIC Score,CIBICVAL,5.0,Placebo,Pbo,0.0,0.0,65.0,65-80,2.0,M,Y,Y,Y,Y,Y,Y,Y,2013-10-28,2014-04-26,,1.0,1.0,1.0,1.0
01-707-1206,12.0,12.0,CDISCPILOT01,ADQSCIBC,707,900,1206,WEEK 24,WEEK 24,Wk24,168.0,168.0,168.0,24.0,2014-04-13,2014-04-13,,Y,CIBIC Score,CIBICVAL,4.0,Placebo,Pbo,0.0,0.0,65.0,65-80,2.0,M,Y,Y,Y,Y,Y,Y,Y,2013-10-28,2014-04-26,,1.0,1.0,1.0,1.0
01-708-1019,4.0,,CDISCPILOT01,ADQSCIBC,708,708,1019,WEEK 2,WEEK 2,,35.0,35.0,14.0,,2014-01-23,2014-01-23,,N,CIBIC Score,CIBICVAL,5.0,Xanomeline Low Dose,Xan_Lo,1.0,54.0,68.0,65-80,2.0,M,Y,Y,Y,N,N,N,N,2013-12-20,2014-01-01,,1.0,,,
01-708-1019,4.0,8.0,CDISCPILOT01,ADQSCIBC,708,708,1019,WEEK 8,WEEK 2,Wk8,35.0,35.0,14.0,8.0,2014-01-23,2014-01-23,,Y,CIBIC Score,CIBICVAL,5.0,Xanomeline Low Dose,Xan_Lo,1.0,54.0,68.0,65-80,2.0,M,Y,Y,Y,N,N,N,N,2013-12-20,2014-01-01,Y,,,1.0,1.0
01-708-1019,4.0,10.0,CDISCPILOT01,ADQSCIBC,708,708,1019,WEEK 16,WEEK 2,Wk16,35.0,35.0,14.0,16.0,2014-01-23,2014-01-23,LOCF,Y,CIBIC Score,CIBICVAL,5.0,Xanomeline Low Dose,Xan_Lo,1.0,54.0,68.0,65-80,2.0,M,Y,Y,Y,N,N,N,N,2013-12-20,2014-01-01,Y,,,,1.0
01-708-1019,4.0,12.0,CDISCPILOT01,ADQSCIBC,708,708,1019,WEEK 24,WEEK 2,Wk24,35.0,35.0,14.0,24.0,2014-01-23,2014-01-23,LOCF,Y,CIBIC Score,CIBICVAL,5.0,Xanomeline Low Dose,Xan_Lo,1.0,54.0,68.0,65-80,2.0,M,Y,Y,Y,N,N,N,N,2013-12-20,2014-01-01,Y,,,,1.0
01-708-1032,5.0,,CDISCPILOT01,ADQSCIBC,708,708,1032,WEEK 4,WEEK 4,,29.0,29.0,28.0,,2013-03-09,2013-03-09,,N,CIBIC Score,CIBICVAL,4.0,Xanomeline Low Dose,Xan_Lo,1.0,54.0,62.0,<65,1.0,M,Y,Y,Y,N,N,N,N,2013-02-09,2013-03-01,,1.0,,,
01-708-1032,5.0,8.0,CDISCPILOT01,ADQSCIBC,708,708,1032,WEEK 8,WEEK 4,Wk8,29.0,29.0,28.0,8.0,2013-03-09,2013-03-09,,Y,CIBIC Score,CIBICVAL,4.0,Xanomeline Low Dose,Xan_Lo,1.0,54.0,62.0,<65,1.0,M,Y,Y,Y,N,N,N,N,2013-02-09,2013-03-01,Y,,,1.0,1.0
01-708-1032,5.0,10.0,CDISCPILOT01,ADQSCIBC,708,708,1032,WEEK 16,WEEK 4,Wk16,29.0,29.0,28.0,16.0,2013-03-09,2013-03-09,LOCF,Y,CIBIC Score,CIBICVAL,4.0,Xanomeline Low Dose,Xan_Lo,1.0,54.0,62.0,<65,1.0,M,Y,Y,Y,N,N,N,N,2013-02-09,2013-03-01,Y,,,,1.0
01-708-1032,5.0,12.0,CDISCPILOT01,ADQSCIBC,708,708,1032,WEEK 24,WEEK 4,Wk24,29.0,29.0,28.0,24.0,2013-03-09,2013-03-09,LOCF,Y,CIBIC Score,CIBICVAL,4.0,Xanomeline Low Dose,Xan_Lo,1.0,54.0,62.0,<65,1.0,M,Y,Y,Y,N,N,N,N,2013-02-09,2013-03-01,Y,,,,1.0
01-708-1084,8.0,8.0,CDISCPILOT01,ADQSCIBC,708,708,1084,WEEK 8,WEEK 8,Wk8,60.0,60.0,56.0,8.0,2013-07-07,2013-07-07,,Y,CIBIC Score,CIBICVAL,3.0,Xanomeline Low Dose,Xan_Lo,1.0,54.0,73.0,65-80,2.0,F,Y,Y,Y,Y,Y,Y,Y,2013-05-09,2013-11-11,,1.0,1.0,1.0,1.0
01-708-1084,10.0,10.0,CDISCPILOT01,ADQSCIBC,708,708,1084,WEEK 16,WEEK 16,Wk16,116.0,116.0,112.0,16.0,2013-09-01,2013-09-01,,Y,CIBIC Score,CIBICVAL,3.0,Xanomeline Low Dose,Xan_Lo,1.0,54.0,73.0,65-80,2.0,F,Y,Y,Y,Y,Y,Y,Y,2013-05-09,2013-11-11,,1.0,1.0,1.0,1.0
01-708-1084,12.0,12.0,CDISCPILOT01,ADQSCIBC,708,708,1084,WEEK 24,WEEK 24,Wk24,173.0,173.0,168.0,24.0,2013-10-28,2013-10-28,,Y,CIBIC Score,CIBICVAL,4.0,Xanomeline Low Dose,Xan_Lo,1.0,54.0,73.0,65-80,2.0,F,Y,Y,Y,Y,Y,Y,Y,2013-05-09,2013-11-11,,1.0,1.0,1.0,1.0
01-708-1087,8.0,8.0,CDISCPILOT01,ADQSCIBC,708,708,1087,WEEK 8,WEEK 8,Wk8,62.0,62.0,56.0,8.0,2012-12-22,2012-12-22,,Y,CIBIC Score,CIBICVAL,3.0,Placebo,Pbo,0.0,0.0,74.0,65-80,2.0,F,Y,Y,Y,Y,Y,Y,Y,2012-10-22,2013-04-28,,1.0,1.0,1.0,1.0
01-708-1087,10.0,10.0,CDISCPILOT01,ADQSCIBC,708,708,1087,WEEK 16,WEEK 16,Wk16,118.0,118.0,112.0,16.0,2013-02-16,2013-02-16,,Y,CIBIC Score,CIBICVAL,5.0,Placebo,Pbo,0.0,0.0,74.0,65-80,2.0,F,Y,Y,Y,Y,Y,Y,Y,2012-10-22,2013-04-28,,1.0,1.0,1.0,1.0
01-708-1087,12.0,12.0,CDISCPILOT01,ADQSCIBC,708,708,1087,WEEK 24,WEEK 24,Wk24,171.0,171.0,168.0,24.0,2013-04-10,2013-04-10,,Y,CIBIC Score,CIBICVAL,4.0,Placebo,Pbo,0.0,0.0,74.0,65-80,2.0,F,Y,Y,Y,Y,Y,Y,Y,2012-10-22,2013-04-28,,1.0,1.0,1.0,1.0
01-708-1158,7.0,,CDISCPILOT01,ADQSCIBC,708,708,1158,WEEK 6,WEEK 6,,43.0,43.0,42.0,,2014-03-22,2014-03-22,,N,CIBIC Score,CIBICVAL,5.0,Placebo,Pbo,0.0,0.0,81.0,>80,3.0,F,Y,Y,Y,N,N,N,N,2014-02-08,2014-03-21,,1.0,,,
01-708-1158,7.0,8.0,CDISCPILOT01,ADQSCIBC,708,708,1158,WEEK 8,WEEK 6,Wk8,43.0,43.0,42.0,8.0,2014-03-22,2014-03-22,,Y,CIBIC Score,CIBICVAL,5.0,Placebo,Pbo,0.0,0.0,81.0,>80,3.0,F,Y,Y,Y,N,N,N,N,2014-02-08,2014-03-21,Y,,,1.0,1.0
01-708-1158,7.0,10.0,CDISCPILOT01,ADQSCIBC,708,708,1158,WEEK 16,WEEK 6,Wk16,43.0,43.0,42.0,16.0,2014-03-22,2014-03-22,LOCF,Y,CIBIC Score,CIBICVAL,5.0,Placebo,Pbo,0.0,0.0,81.0,>80,3.0,F,Y,Y,Y,N,N,N,N,2014-02-08,2014-03-21,Y,,,,1.0
01-708-1158,7.0,12.0,CDISCPILOT01,ADQSCIBC,708,708,1158,WEEK 24,WEEK 6,Wk24,43.0,43.0,42.0,24.0,2014-03-22,2014-03-22,LOCF,Y,CIBIC Score,CIBICVAL,5.0,Placebo,Pbo,0.0,0.0,81.0,>80,3.0,F,Y,Y,Y,N,N,N,N,2014-02-08,2014-03-21,Y,,,,1.0
01-708-1171,8.0,8.0,CDISCPILOT01,ADQSCIBC,708,708,1171,WEEK 8,WEEK 8,Wk8,54.0,54.0,56.0,8.0,2013-01-28,2013-01-28,,Y,CIBIC Score,CIBICVAL,4.0,Placebo,Pbo,0.0,0.0,77.0,65-80,2.0,F,Y,Y,Y,Y,Y,Y,Y,2012-12-06,2013-06-04,,1.0,1.0,1.0,1.0
01-708-1171,10.0,10.0,CDISCPILOT01,ADQSCIBC,708,708,1171,WEEK 16,WEEK 16,Wk16,110.0,110.0,112.0,16.0,2013-03-25,2013-03-25,,Y,CIBIC Score,CIBICVAL,5.0,Placebo,Pbo,0.0,0.0,77.0,65-80,2.0,F,Y,Y,Y,Y,Y,Y,Y,2012-12-06,2013-06-04,,1.0,1.0,1.0,1.0
01-708-1171,12.0,12.0,CDISCPILOT01,ADQSCIBC,708,708,1171,WEEK 24,WEEK 24,Wk24,166.0,166.0,168.0,24.0,2013-05-20,2013-05-20,,Y,CIBIC Score,CIBICVAL,5.0,Placebo,Pbo,0.0,0.0,77.0,65-80,2.0,F,Y,Y,Y,Y,Y,Y,Y,2012-12-06,2013-06-04,,1.0,1.0,1.0,1.0
01-708-1178,8.0,8.0,CDISCPILOT01,ADQSCIBC,708,708,1178,WEEK 8,WEEK 8,Wk8,71.0,71.0,56.0,8.0,2014-03-09,2014-03-09,,Y,CIBIC Score,CIBICVAL,5.0,Xanomeline High Dose,Xan_Hi,2.0,81.0,77.0,65-80,2.0,F,Y,Y,Y,N,N,Y,Y,2013-12-29,2014-04-06,,1.0,1.0,1.0,1.0
01-708-1178,9.0,,CDISCPILOT01,ADQSCIBC,708,708,1178,WEEK 12,WEEK 12,,99.0,99.0,84.0,,2014-04-06,2014-04-06,,N,CIBIC Score,CIBICVAL,3.0,Xanomeline High Dose,Xan_Hi,2.0,81.0,77.0,65-80,2.0,F,Y,Y,Y,N,N,Y,Y,2013-12-29,2014-04-06,,1.0,,,
01-708-1178,9.0,10.0,CDISCPILOT01,ADQSCIBC,708,708,1178,WEEK 16,WEEK 12,Wk16,99.0,99.0,84.0,16.0,2014-04-06,2014-04-06,,Y,CIBIC Score,CIBICVAL,3.0,Xanomeline High Dose,Xan_Hi,2.0,81.0,77.0,65-80,2.0,F,Y,Y,Y,N,N,Y,Y,2013-12-29,2014-04-06,Y,,,1.0,1.0
01-708-1178,9.0,12.0,CDISCPILOT01,ADQSCIBC,708,708,1178,WEEK 24,WEEK 12,Wk24,99.0,99.0,84.0,24.0,2014-04-06,2014-04-06,LOCF,Y,CIBIC Score,CIBICVAL,3.0,Xanomeline High Dose,Xan_Hi,2.0,81.0,77.0,65-80,2.0,F,Y,Y,Y,N,N,Y,Y,2013-12-29,2014-04-06,Y,,,,1.0
01-708-1213,5.0,,CDISCPILOT01,ADQSCIBC,708,708,1213,WEEK 4,WEEK 4,,18.0,18.0,28.0,,2013-02-26,2013-02-26,,N,CIBIC Score,CIBICVAL,4.0,Xanomeline High Dose,Xan_Hi,2.0,81.0,76.0,65-80,2.0,F,Y,Y,N,N,N,N,N,2013-02-09,2013-02-22,,1.0,,,
01-708-1213,5.0,8.0,CDISCPILOT01,ADQSCIBC,708,708,1213,WEEK 8,WEEK 4,Wk8,18.0,18.0,28.0,8.0,2013-02-26,2013-02-26,,Y,CIBIC Score,CIBICVAL,4.0,Xanomeline High Dose,Xan_Hi,2.0,81.0,76.0,65-80,2.0,F,Y,Y,N,N,N,N,N,2013-02-09,2013-02-22,Y,,,1.0,1.0
01-708-1213,5.0,10.0,CDISCPILOT01,ADQSCIBC,708,708,1213,WEEK 16,WEEK 4,Wk16,18.0,18.0,28.0,16.0,2013-02-26,2013-02-26,LOCF,Y,CIBIC Score,CIBICVAL,4.0,Xanomeline High Dose,Xan_Hi,2.0,81.0,76.0,65-80,2.0,F,Y,Y,N,N,N,N,N,2013-02-09,2013-02-22,Y,,,,1.0
01-708-1213,5.0,12.0,CDISCPILOT01,ADQSCIBC,708,708,1213,WEEK 24,WEEK 4,Wk24,18.0,18.0,28.0,24.0,2013-02-26,2013-02-26,LOCF,Y,CIBIC Score,CIBICVAL,4.0,Xanomeline High Dose,Xan_Hi,2.0,81.0,76.0,65-80,2.0,F,Y,Y,N,N,N,N,N,2013-02-09,2013-02-22,Y,,,,1.0
01-708-1216,7.0,,CDISCPILOT01,ADQSCIBC,708,708,1216,WEEK 6,WEEK 6,,44.0,44.0,42.0,,2012-12-06,2012-12-06,,N,CIBIC Score,CIBICVAL,3.0,Xanomeline High Dose,Xan_Hi,2.0,81.0,78.0,65-80,2.0,M,Y,Y,Y,N,N,N,N,2012-10-24,2012-11-29,,1.0,,,
01-708-1216,7.0,8.0,CDISCPILOT01,ADQSCIBC,708,708,1216,WEEK 8,WEEK 6,Wk8,44.0,44.0,42.0,8.0,2012-12-06,2012-12-06,,Y,CIBIC Score,CIBICVAL,3.0,Xanomeline High Dose,Xan_Hi,2.0,81.0,78.0,65-80,2.0,M,Y,Y,Y,N,N,N,N,2012-10-24,2012-11-29,Y,,,1.0,1.0
01-708-1216,7.0,10.0,CDISCPILOT01,ADQSCIBC,708,708,1216,WEEK 16,WEEK 6,Wk16,44.0,44.0,42.0,16.0,2012-12-06,2012-12-06,LOCF,Y,CIBIC Score,CIBICVAL,3.0,Xanomeline High Dose,Xan_Hi,2.0,81.0,78.0,65-80,2.0,M,Y,Y,Y,N,N,N,N,2012-10-24,2012-11-29,Y,,,,1.0
01-708-1216,7.0,12.0,CDISCPILOT01,ADQSCIBC,708,708,1216,WEEK 24,WEEK 6,Wk24,44.0,44.0,42.0,24.0,2012-12-06,2012-12-06,LOCF,Y,CIBIC Score,CIBICVAL,3.0,Xanomeline High Dose,Xan_Hi,2.0,81.0,78.0,65-80,2.0,M,Y,Y,Y,N,N,N,N,2012-10-24,2012-11-29,Y,,,,1.0
01-708-1253,8.0,8.0,CDISCPILOT01,ADQSCIBC,708,708,1253,WEEK 8,WEEK 8,Wk8,64.0,64.0,56.0,8.0,2013-07-09,2013-07-09,,Y,CIBIC Score,CIBICVAL,3.0,Placebo,Pbo,0.0,0.0,61.0,<65,1.0,M,Y,Y,Y,Y,Y,Y,Y,2013-05-07,2013-11-05,,1.0,1.0,1.0,1.0
01-708-1253,10.0,10.0,CDISCPILOT01,ADQSCIBC,708,708,1253,WEEK 16,WEEK 16,Wk16,119.0,119.0,112.0,16.0,2013-09-02,2013-09-02,,Y,CIBIC Score,CIBICVAL,4.0,Placebo,Pbo,0.0,0.0,61.0,<65,1.0,M,Y,Y,Y,Y,Y,Y,Y,2013-05-07,2013-11-05,,1.0,1.0,1.0,1.0
01-708-1253,12.0,12.0,CDISCPILOT01,ADQSCIBC,708,708,1253,WEEK 24,WEEK 24,Wk24,174.0,174.0,168.0,24.0,2013-10-27,2013-10-27,,Y,CIBIC Score,CIBICVAL,4.0,Placebo,Pbo,0.0,0.0,61.0,<65,1.0,M,Y,Y,Y,Y,Y,Y,Y,2013-05-07,2013-11-05,,1.0,1.0,1.0,1.0
01-708-1272,8.0,8.0,CDISCPILOT01,ADQSCIBC,708,708,1272,WEEK 8,WEEK 8,Wk8,58.0,58.0,56.0,8.0,2013-04-04,2013-04-04,,Y,CIBIC Score,CIBICVAL,3.0,Xanomeline Low Dose,Xan_Lo,1.0,54.0,82.0,>80,3.0,M,Y,Y,Y,N,N,Y,N,2013-02-06,2013-03-22,,1.0,1.0,1.0,1.0
01-708-1272,8.0,10.0,CDISCPILOT01,ADQSCIBC,708,708,1272,WEEK 16,WEEK 8,Wk16,58.0,58.0,56.0,16.0,2013-04-04,2013-04-04,LOCF,Y,CIBIC Score,CIBICVAL,3.0,Xanomeline Low Dose,Xan_Lo,1.0,54.0,82.0,>80,3.0,M,Y,Y,Y,N,N,Y,N,2013-02-06,2013-03-22,Y,,,,1.0
01-708-1272,8.0,12.0,CDISCPILOT01,ADQSCIBC,708,708,1272,WEEK 24,WEEK 8,Wk24,58.0,58.0,56.0,24.0,2013-04-04,2013-04-04,LOCF,Y,CIBIC Score,CIBICVAL,3.0,Xanomeline Low Dose,Xan_Lo,1.0,54.0,82.0,>80,3.0,M,Y,Y,Y,N,N,Y,N,2013-02-06,2013-03-22,Y,,,,1.0
01-708-1286,8.0,8.0,CDISCPILOT01,ADQSCIBC,708,708,1286,WEEK 8,WEEK 8,Wk8,55.0,55.0,56.0,8.0,2013-11-03,2013-11-03,,Y,CIBIC Score,CIBICVAL,3.0,Placebo,Pbo,0.0,0.0,80.0,65-80,2.0,F,Y,Y,Y,Y,Y,Y,Y,2013-09-10,2014-03-08,,1.0,1.0,1.0,1.0
01-708-1286,10.0,10.0,CDISCPILOT01,ADQSCIBC,708,708,1286,WEEK 16,WEEK 16,Wk16,111.0,111.0,112.0,16.0,2013-12-29,2013-12-29,,Y,CIBIC Score,CIBICVAL,4.0,Placebo,Pbo,0.0,0.0,80.0,65-80,2.0,F,Y,Y,Y,Y,Y,Y,Y,2013-09-10,2014-03-08,,1.0,1.0,1.0,1.0
01-708-1286,12.0,12.0,CDISCPILOT01,ADQSCIBC,708,708,1286,WEEK 24,WEEK 24,Wk24,167.0,167.0,168.0,24.0,2014-02-23,2014-02-23,,Y,CIBIC Score,CIBICVAL,3.0,Placebo,Pbo,0.0,0.0,80.0,65-80,2.0,F,Y,Y,Y,Y,Y,Y,Y,2013-09-10,2014-03-08,,1.0,1.0,1.0,1.0
01-708-1296,8.0,8.0,CDISCPILOT01,ADQSCIBC,708,708,1296,WEEK 8,WEEK 8,Wk8,55.0,55.0,56.0,8.0,2013-08-07,2013-08-07,,Y,CIBIC Score,CIBICVAL,5.0,Placebo,Pbo,0.0,0.0,57.0,<65,1.0,M,Y,Y,Y,Y,Y,Y,Y,2013-06-14,2013-12-12,,1.0,1.0,1.0,1.0
01-708-1296,10.0,10.0,CDISCPILOT01,ADQSCIBC,708,708,1296,WEEK 16,WEEK 16,Wk16,111.0,111.0,112.0,16.0,2013-10-02,2013-10-02,,Y,CIBIC Score,CIBICVAL,5.0,Placebo,Pbo,0.0,0.0,57.0,<65,1.0,M,Y,Y,Y,Y,Y,Y,Y,2013-06-14,2013-12-12,,1.0,1.0,1.0,1.0
01-708-1296,12.0,12.0,CDISCPILOT01,ADQSCIBC,708,708,1296,WEEK 24,WEEK 24,Wk24,167.0,167.0,168.0,24.0,2013-11-27,2013-11-27,,Y,CIBIC Score,CIBICVAL,3.0,Placebo,Pbo,0.0,0.0,57.0,<65,1.0,M,Y,Y,Y,Y,Y,Y,Y,2013-06-14,2013-12-12,,1.0,1.0,1.0,1.0
01-708-1297,8.0,8.0,CDISCPILOT01,ADQSCIBC,708,708,1297,WEEK 8,WEEK 8,Wk8,54.0,54.0,56.0,8.0,2013-03-19,2013-03-19,,Y,CIBIC Score,CIBICVAL,5.0,Xanomeline Low Dose,Xan_Lo,1.0,54.0,61.0,<65,1.0,M,Y,Y,Y,N,Y,Y,Y,2013-01-25,2013-05-03,,1.0,1.0,1.0,1.0
01-708-1297,10.0,10.0,CDISCPILOT01,ADQSCIBC,708,708,1297,WEEK 16,WEEK 16,Wk16,104.0,104.0,112.0,16.0,2013-05-08,2013-05-08,,Y,CIBIC Score,CIBICVAL,5.0,Xanomeline Low Dose,Xan_Lo,1.0,54.0,61.0,<65,1.0,M,Y,Y,Y,N,Y,Y,N,2013-01-25,2013-05-03,,1.0,1.0,1.0,1.0
01-708-1297,10.0,12.0,CDISCPILOT01,ADQSCIBC,708,708,1297,WEEK 24,WEEK 16,Wk24,104.0,104.0,112.0,24.0,2013-05-08,2013-05-08,LOCF,Y,CIBIC Score,CIBICVAL,5.0,Xanomeline Low Dose,Xan_Lo,1.0,54.0,61.0,<65,1.0,M,Y,Y,Y,N,Y,Y,N,2013-01-25,2013-05-03,Y,,,,1.0
01-708-1316,8.0,8.0,CDISCPILOT01,ADQSCIBC,708,708,1316,WEEK 8,WEEK 8,Wk8,64.0,64.0,56.0,8.0,2013-10-25,2013-10-25,,Y,CIBIC Score,CIBICVAL,3.0,Placebo,Pbo,0.0,0.0,74.0,65-80,2.0,F,Y,Y,Y,Y,Y,Y,Y,2013-08-23,2014-03-01,,1.0,1.0,1.0,1.0
01-708-1316,10.0,10.0,CDISCPILOT01,ADQSCIBC,708,708,1316,WEEK 16,WEEK 16,Wk16,121.0,121.0,112.0,16.0,2013-12-21,2013-12-21,,Y,CIBIC Score,CIBICVAL,4.0,Placebo,Pbo,0.0,0.0,74.0,65-80,2.0,F,Y,Y,Y,Y,Y,Y,Y,2013-08-23,2014-03-01,,1.0,1.0,1.0,1.0
01-708-1316,12.0,12.0,CDISCPILOT01,ADQSCIBC,708,708,1316,WEEK 24,WEEK 24,Wk24,177.0,177.0,168.0,24.0,2014-02-15,2014-02-15,,Y,CIBIC Score,CIBICVAL,4.0,Placebo,Pbo,0.0,0.0,74.0,65-80,2.0,F,Y,Y,Y,Y,Y,Y,Y,2013-08-23,2014-03-01,,1.0,1.0,1.0,1.0
01-708-1336,8.0,8.0,CDISCPILOT01,ADQSCIBC,708,708,1336,WEEK 8,WEEK 8,Wk8,54.0,54.0,56.0,8.0,2013-01-29,2013-01-29,,Y,CIBIC Score,CIBICVAL,5.0,Xanomeline High Dose,Xan_Hi,2.0,81.0,73.0,65-80,2.0,M,Y,Y,Y,Y,Y,Y,Y,2012-12-07,2013-06-05,,1.0,1.0,1.0,1.0
01-708-1336,10.0,10.0,CDISCPILOT01,ADQSCIBC,708,708,1336,WEEK 16,WEEK 16,Wk16,111.0,111.0,112.0,16.0,2013-03-27,2013-03-27,,Y,CIBIC Score,CIBICVAL,5.0,Xanomeline High Dose,Xan_Hi,2.0,81.0,73.0,65-80,2.0,M,Y,Y,Y,Y,Y,Y,Y,2012-12-07,2013-06-05,,1.0,1.0,1.0,1.0
01-708-1336,12.0,12.0,CDISCPILOT01,ADQSCIBC,708,708,1336,WEEK 24,WEEK 24,Wk24,167.0,167.0,168.0,24.0,2013-05-22,2013-05-22,,Y,CIBIC Score,CIBICVAL,6.0,Xanomeline High Dose,Xan_Hi,2.0,81.0,73.0,65-80,2.0,M,Y,Y,Y,Y,Y,Y,Y,2012-12-07,2013-06-05,,1.0,1.0,1.0,1.0
01-708-1342,8.0,8.0,CDISCPILOT01,ADQSCIBC,708,708,1342,WEEK 8,WEEK 8,Wk8,57.0,57.0,56.0,8.0,2013-02-23,2013-02-23,,Y,CIBIC Score,CIBICVAL,3.0,Placebo,Pbo,0.0,0.0,59.0,<65,1.0,F,Y,Y,Y,Y,Y,Y,Y,2012-12-29,2013-06-28,,1.0,1.0,1.0,1.0
01-708-1342,10.0,10.0,CDISCPILOT01,ADQSCIBC,708,708,1342,WEEK 16,WEEK 16,Wk16,113.0,113.0,112.0,16.0,2013-04-20,2013-04-20,,Y,CIBIC Score,CIBICVAL,4.0,Placebo,Pbo,0.0,0.0,59.0,<65,1.0,F,Y,Y,Y,Y,Y,Y,Y,2012-12-29,2013-06-28,,1.0,1.0,1.0,1.0
01-708-1342,12.0,12.0,CDISCPILOT01,ADQSCIBC,708,708,1342,WEEK 24,WEEK 24,Wk24,169.0,169.0,168.0,24.0,2013-06-15,2013-06-15,,Y,CIBIC Score,CIBICVAL,5.0,Placebo,Pbo,0.0,0.0,59.0,<65,1.0,F,Y,Y,Y,Y,Y,Y,Y,2012-12-29,2013-06-28,,1.0,1.0,1.0,1.0
01-708-1347,8.0,8.0,CDISCPILOT01,ADQSCIBC,708,708,1347,WEEK 8,WEEK 8,Wk8,55.0,55.0,56.0,8.0,2013-06-13,2013-06-13,,Y,CIBIC Score,CIBICVAL,3.0,Xanomeline High Dose,Xan_Hi,2.0,81.0,61.0,<65,1.0,F,Y,Y,Y,N,N,Y,Y,2013-04-20,2013-06-18,,1.0,1.0,1.0,1.0
01-708-1347,8.0,10.0,CDISCPILOT01,ADQSCIBC,708,708,1347,WEEK 16,WEEK 8,Wk16,55.0,55.0,56.0,16.0,2013-06-13,2013-06-13,LOCF,Y,CIBIC Score,CIBICVAL,3.0,Xanomeline High Dose,Xan_Hi,2.0,81.0,61.0,<65,1.0,F,Y,Y,Y,N,N,Y,Y,2013-04-20,2013-06-18,Y,,,,1.0
01-708-1347,8.0,12.0,CDISCPILOT01,ADQSCIBC,708,708,1347,WEEK 24,WEEK 8,Wk24,55.0,55.0,56.0,24.0,2013-06-13,2013-06-13,LOCF,Y,CIBIC Score,CIBICVAL,3.0,Xanomeline High Dose,Xan_Hi,2.0,81.0,61.0,<65,1.0,F,Y,Y,Y,N,N,Y,Y,2013-04-20,2013-06-18,Y,,,,1.0
01-708-1347,9.0,,CDISCPILOT01,ADQSCIBC,708,708,1347,WEEK 12,WEEK 12,,60.0,60.0,84.0,,2013-06-18,2013-06-18,,N,CIBIC Score,CIBICVAL,4.0,Xanomeline High Dose,Xan_Hi,2.0,81.0,61.0,<65,1.0,F,Y,Y,Y,N,N,Y,Y,2013-04-20,2013-06-18,,1.0,,,
01-708-1348,8.0,8.0,CDISCPILOT01,ADQSCIBC,708,708,1348,WEEK 8,WEEK 8,Wk8,63.0,63.0,56.0,8.0,2013-10-06,2013-10-06,,Y,CIBIC Score,CIBICVAL,3.0,Xanomeline Low Dose,Xan_Lo,1.0,54.0,79.0,65-80,2.0,F,Y,Y,Y,Y,Y,Y,Y,2013-08-05,2014-02-13,,1.0,1.0,1.0,1.0
01-708-1348,10.0,10.0,CDISCPILOT01,ADQSCIBC,708,708,1348,WEEK 16,WEEK 16,Wk16,119.0,119.0,112.0,16.0,2013-12-01,2013-12-01,,Y,CIBIC Score,CIBICVAL,5.0,Xanomeline Low Dose,Xan_Lo,1.0,54.0,79.0,65-80,2.0,F,Y,Y,Y,Y,Y,Y,Y,2013-08-05,2014-02-13,,1.0,1.0,1.0,1.0
01-708-1348,12.0,12.0,CDISCPILOT01,ADQSCIBC,708,708,1348,WEEK 24,WEEK 24,Wk24,183.0,183.0,168.0,24.0,2014-02-03,2014-02-03,,Y,CIBIC Score,CIBICVAL,3.0,Xanomeline Low Dose,Xan_Lo,1.0,54.0,79.0,65-80,2.0,F,Y,Y,Y,Y,Y,Y,Y,2013-08-05,2014-02-13,,1.0,1.0,1.0,1.0
01-708-1353,8.0,8.0,CDISCPILOT01,ADQSCIBC,708,708,1353,WEEK 8,WEEK 8,Wk8,69.0,69.0,56.0,8.0,2013-09-10,2013-09-10,,Y,CIBIC Score,CIBICVAL,5.0,Xanomeline Low Dose,Xan_Lo,1.0,54.0,87.0,>80,3.0,F,Y,Y,Y,N,N,Y,N,2013-07-04,2013-08-28,,1.0,1.0,1.0,1.0
01-708-1353,8.0,10.0,CDISCPILOT01,ADQSCIBC,708,708,1353,WEEK 16,WEEK 8,Wk16,69.0,69.0,56.0,16.0,2013-09-10,2013-09-10,LOCF,Y,CIBIC Score,CIBICVAL,5.0,Xanomeline Low Dose,Xan_Lo,1.0,54.0,87.0,>80,3.0,F,Y,Y,Y,N,N,Y,N,2013-07-04,2013-08-28,Y,,,,1.0
01-708-1353,8.0,12.0,CDISCPILOT01,ADQSCIBC,708,708,1353,WEEK 24,WEEK 8,Wk24,69.0,69.0,56.0,24.0,2013-09-10,2013-09-10,LOCF,Y,CIBIC Score,CIBICVAL,5.0,Xanomeline Low Dose,Xan_Lo,1.0,54.0,87.0,>80,3.0,F,Y,Y,Y,N,N,Y,N,2013-07-04,2013-08-28,Y,,,,1.0
01-708-1378,8.0,8.0,CDISCPILOT01,ADQSCIBC,708,708,1378,WEEK 8,WEEK 8,Wk8,64.0,64.0,56.0,8.0,2013-11-05,2013-11-05,,Y,CIBIC Score,CIBICVAL,3.0,Placebo,Pbo,0.0,0.0,67.0,65-80,2.0,M,Y,Y,Y,N,Y,Y,Y,2013-09-03,2014-01-28,,1.0,1.0,1.0,1.0
01-708-1378,10.0,10.0,CDISCPILOT01,ADQSCIBC,708,708,1378,WEEK 16,WEEK 16,Wk16,132.0,132.0,112.0,16.0,2014-01-12,2014-01-12,,Y,CIBIC Score,CIBICVAL,3.0,Placebo,Pbo,0.0,0.0,67.0,65-80,2.0,M,Y,Y,Y,N,Y,Y,Y,2013-09-03,2014-01-28,,1.0,1.0,1.0,1.0
01-708-1378,11.0,,CDISCPILOT01,ADQSCIBC,708,708,1378,WEEK 20,WEEK 20,,148.0,148.0,140.0,,2014-01-28,2014-01-28,,N,CIBIC Score,CIBICVAL,3.0,Placebo,Pbo,0.0,0.0,67.0,65-80,2.0,M,Y,Y,Y,N,Y,Y,Y,2013-09-03,2014-01-28,,1.0,,,
01-708-1378,11.0,12.0,CDISCPILOT01,ADQSCIBC,708,708,1378,WEEK 24,WEEK 20,Wk24,148.0,148.0,140.0,24.0,2014-01-28,2014-01-28,,Y,CIBIC Score,CIBICVAL,3.0,Placebo,Pbo,0.0,0.0,67.0,65-80,2.0,M,Y,Y,Y,N,Y,Y,Y,2013-09-03,2014-01-28,Y,,,1.0,1.0
01-708-1406,8.0,8.0,CDISCPILOT01,ADQSCIBC,708,708,1406,WEEK 8,WEEK 8,Wk8,61.0,61.0,56.0,8.0,2014-02-24,2014-02-24,,Y,CIBIC Score,CIBICVAL,3.0,Xanomeline High Dose,Xan_Hi,2.0,81.0,71.0,65-80,2.0,F,Y,Y,Y,Y,Y,Y,Y,2013-12-26,2014-07-02,,1.0,1.0,1.0,1.0
01-708-1406,10.0,10.0,CDISCPILOT01,ADQSCIBC,708,708,1406,WEEK 16,WEEK 16,Wk16,112.0,112.0,112.0,16.0,2014-04-16,2014-04-16,,Y,CIBIC Score,CIBICVAL,5.0,Xanomeline High Dose,Xan_Hi,2.0,81.0,71.0,65-80,2.0,F,Y,Y,Y,Y,Y,Y,Y,2013-12-26,2014-07-02,,1.0,1.0,1.0,1.0
01-708-1406,12.0,12.0,CDISCPILOT01,ADQSCIBC,708,708,1406,WEEK 24,WEEK 24,Wk24,173.0,173.0,168.0,24.0,2014-06-16,2014-06-16,,Y,CIBIC Score,CIBICVAL,5.0,Xanomeline High Dose,Xan_Hi,2.0,81.0,71.0,65-80,2.0,F,Y,Y,Y,Y,Y,Y,Y,2013-12-26,2014-07-02,,1.0,1.0,1.0,1.0
01-708-1428,8.0,8.0,CDISCPILOT01,ADQSCIBC,708,708,1428,WEEK 8,WEEK 8,Wk8,84.0,84.0,56.0,8.0,2014-01-31,2014-01-31,,Y,CIBIC Score,CIBICVAL,5.0,Xanomeline Low Dose,Xan_Lo,1.0,54.0,84.0,>80,3.0,F,Y,Y,Y,N,N,Y,N,2013-11-09,2013-12-14,,1.0,1.0,1.0,1.0
01-708-1428,8.0,10.0,CDISCPILOT01,ADQSCIBC,708,708,1428,WEEK 16,WEEK 8,Wk16,84.0,84.0,56.0,16.0,2014-01-31,2014-01-31,LOCF,Y,CIBIC Score,CIBICVAL,5.0,Xanomeline Low Dose,Xan_Lo,1.0,54.0,84.0,>80,3.0,F,Y,Y,Y,N,N,Y,N,2013-11-09,2013-12-14,Y,,,,1.0
01-708-1428,8.0,12.0,CDISCPILOT01,ADQSCIBC,708,708,1428,WEEK 24,WEEK 8,Wk24,84.0,84.0,56.0,24.0,2014-01-31,2014-01-31,LOCF,Y,CIBIC Score,CIBICVAL,5.0,Xanomeline Low Dose,Xan_Lo,1.0,54.0,84.0,>80,3.0,F,Y,Y,Y,N,N,Y,N,2013-11-09,2013-12-14,Y,,,,1.0
01-709-1001,8.0,8.0,CDISCPILOT01,ADQSCIBC,709,709,1001,WEEK 8,WEEK 8,Wk8,57.0,57.0,56.0,8.0,2013-12-03,2013-12-03,,Y,CIBIC Score,CIBICVAL,3.0,Placebo,Pbo,0.0,0.0,76.0,65-80,2.0,F,Y,Y,Y,Y,Y,Y,Y,2013-10-08,2014-04-08,,1.0,1.0,1.0,1.0
01-709-1001,10.0,10.0,CDISCPILOT01,ADQSCIBC,709,709,1001,WEEK 16,WEEK 16,Wk16,113.0,113.0,112.0,16.0,2014-01-28,2014-01-28,,Y,CIBIC Score,CIBICVAL,5.0,Placebo,Pbo,0.0,0.0,76.0,65-80,2.0,F,Y,Y,Y,Y,Y,Y,Y,2013-10-08,2014-04-08,,1.0,1.0,1.0,1.0
01-709-1001,12.0,12.0,CDISCPILOT01,ADQSCIBC,709,709,1001,WEEK 24,WEEK 24,Wk24,161.0,161.0,168.0,24.0,2014-03-17,2014-03-17,,Y,CIBIC Score,CIBICVAL,5.0,Placebo,Pbo,0.0,0.0,76.0,65-80,2.0,F,Y,Y,Y,Y,Y,Y,Y,2013-10-08,2014-04-08,,1.0,1.0,1.0,1.0
01-709-1020,8.0,8.0,CDISCPILOT01,ADQSCIBC,709,709,1020,WEEK 8,WEEK 8,Wk8,57.0,57.0,56.0,8.0,2013-01-26,2013-01-26,,Y,CIBIC Score,CIBICVAL,2.0,Xanomeline Low Dose,Xan_Lo,1.0,54.0,72.0,65-80,2.0,F,Y,Y,Y,Y,Y,Y,Y,2012-12-01,2013-06-01,,1.0,1.0,1.0,1.0
01-709-1020,10.0,10.0,CDISCPILOT01,ADQSCIBC,709,709,1020,WEEK 16,WEEK 16,Wk16,113.0,113.0,112.0,16.0,2013-03-23,2013-03-23,,Y,CIBIC Score,CIBICVAL,3.0,Xanomeline Low Dose,Xan_Lo,1.0,54.0,72.0,65-80,2.0,F,Y,Y,Y,Y,Y,Y,Y,2012-12-01,2013-06-01,,1.0,1.0,1.0,1.0
01-709-1020,12.0,12.0,CDISCPILOT01,ADQSCIBC,709,709,1020,WEEK 24,WEEK 24,Wk24,169.0,169.0,168.0,24.0,2013-05-18,2013-05-18,,Y,CIBIC Score,CIBICVAL,4.0,Xanomeline Low Dose,Xan_Lo,1.0,54.0,72.0,65-80,2.0,F,Y,Y,Y,Y,Y,Y,Y,2012-12-01,2013-06-01,,1.0,1.0,1.0,1.0
01-709-1029,8.0,8.0,CDISCPILOT01,ADQSCIBC,709,709,1029,WEEK 8,WEEK 8,Wk8,57.0,57.0,56.0,8.0,2013-02-19,2013-02-19,,Y,CIBIC Score,CIBICVAL,5.0,Xanomeline High Dose,Xan_Hi,2.0,81.0,82.0,>80,3.0,M,Y,Y,Y,Y,Y,Y,Y,2012-12-25,2013-06-26,,1.0,1.0,1.0,1.0
01-709-1029,10.0,10.0,CDISCPILOT01,ADQSCIBC,709,709,1029,WEEK 16,WEEK 16,Wk16,113.0,113.0,112.0,16.0,2013-04-16,2013-04-16,,Y,CIBIC Score,CIBICVAL,4.0,Xanomeline High Dose,Xan_Hi,2.0,81.0,82.0,>80,3.0,M,Y,Y,Y,Y,Y,Y,Y,2012-12-25,2013-06-26,,1.0,1.0,1.0,1.0
01-709-1029,12.0,12.0,CDISCPILOT01,ADQSCIBC,709,709,1029,WEEK 24,WEEK 24,Wk24,170.0,170.0,168.0,24.0,2013-06-12,2013-06-12,,Y,CIBIC Score,CIBICVAL,5.0,Xanomeline High Dose,Xan_Hi,2.0,81.0,82.0,>80,3.0,M,Y,Y,Y,Y,Y,Y,Y,2012-12-25,2013-06-26,,1.0,1.0,1.0,1.0
01-709-1081,8.0,8.0,CDISCPILOT01,ADQSCIBC,709,709,1081,WEEK 8,WEEK 8,Wk8,57.0,57.0,56.0,8.0,2014-03-15,2014-03-15,,Y,CIBIC Score,CIBICVAL,3.0,Xanomeline Low Dose,Xan_Lo,1.0,54.0,86.0,>80,3.0,F,Y,Y,Y,N,Y,Y,Y,2014-01-18,2014-04-27,,1.0,1.0,1.0,1.0
01-709-1081,10.0,10.0,CDISCPILOT01,ADQSCIBC,709,709,1081,WEEK 16,WEEK 16,Wk16,113.0,113.0,112.0,16.0,2014-05-10,2014-05-10,,Y,CIBIC Score,CIBICVAL,3.0,Xanomeline Low Dose,Xan_Lo,1.0,54.0,86.0,>80,3.0,F,Y,Y,Y,N,Y,Y,N,2014-01-18,2014-04-27,,1.0,1.0,1.0,1.0
01-709-1081,10.0,12.0,CDISCPILOT01,ADQSCIBC,709,709,1081,WEEK 24,WEEK 16,Wk24,113.0,113.0,112.0,24.0,2014-05-10,2014-05-10,LOCF,Y,CIBIC Score,CIBICVAL,3.0,Xanomeline Low Dose,Xan_Lo,1.0,54.0,86.0,>80,3.0,F,Y,Y,Y,N,Y,Y,N,2014-01-18,2014-04-27,Y,,,,1.0
01-709-1088,8.0,8.0,CDISCPILOT01,ADQSCIBC,709,709,1088,WEEK 8,WEEK 8,Wk8,51.0,51.0,56.0,8.0,2014-06-01,2014-06-01,,Y,CIBIC Score,CIBICVAL,3.0,Placebo,Pbo,0.0,0.0,69.0,65-80,2.0,M,Y,Y,Y,Y,Y,Y,Y,2014-04-12,2014-10-09,,1.0,1.0,1.0,1.0
01-709-1088,10.0,10.0,CDISCPILOT01,ADQSCIBC,709,709,1088,WEEK 16,WEEK 16,Wk16,113.0,113.0,112.0,16.0,2014-08-02,2014-08-02,,Y,CIBIC Score,CIBICVAL,3.0,Placebo,Pbo,0.0,0.0,69.0,65-80,2.0,M,Y,Y,Y,Y,Y,Y,Y,2014-04-12,2014-10-09,,1.0,1.0,1.0,1.0
01-709-1088,12.0,12.0,CDISCPILOT01,ADQSCIBC,709,709,1088,WEEK 24,WEEK 24,Wk24,169.0,169.0,168.0,24.0,2014-09-27,2014-09-27,,Y,CIBIC Score,CIBICVAL,3.0,Placebo,Pbo,0.0,0.0,69.0,65-80,2.0,M,Y,Y,Y,Y,Y,Y,Y,2014-04-12,2014-10-09,,1.0,1.0,1.0,1.0
01-709-1099,8.0,8.0,CDISCPILOT01,ADQSCIBC,709,709,1099,WEEK 8,WEEK 8,Wk8,63.0,63.0,56.0,8.0,2013-12-26,2013-12-26,,Y,CIBIC Score,CIBICVAL,3.0,Xanomeline High Dose,Xan_Hi,2.0,81.0,79.0,65-80,2.0,F,Y,Y,Y,Y,Y,Y,Y,2013-10-25,2014-04-25,,1.0,1.0,1.0,1.0
01-709-1099,10.0,10.0,CDISCPILOT01,ADQSCIBC,709,709,1099,WEEK 16,WEEK 16,Wk16,113.0,113.0,112.0,16.0,2014-02-14,2014-02-14,,Y,CIBIC Score,CIBICVAL,3.0,Xanomeline High Dose,Xan_Hi,2.0,81.0,79.0,65-80,2.0,F,Y,Y,Y,Y,Y,Y,Y,2013-10-25,2014-04-25,,1.0,1.0,1.0,1.0
01-709-1099,12.0,12.0,CDISCPILOT01,ADQSCIBC,709,709,1099,WEEK 24,WEEK 24,Wk24,169.0,169.0,168.0,24.0,2014-04-11,2014-04-11,,Y,CIBIC Score,CIBICVAL,5.0,Xanomeline High Dose,Xan_Hi,2.0,81.0,79.0,65-80,2.0,F,Y,Y,Y,Y,Y,Y,Y,2013-10-25,2014-04-25,,1.0,1.0,1.0,1.0
01-709-1102,8.0,8.0,CDISCPILOT01,ADQSCIBC,709,709,1102,WEEK 8,WEEK 8,Wk8,57.0,57.0,56.0,8.0,2013-03-12,2013-03-12,,Y,CIBIC Score,CIBICVAL,5.0,Xanomeline Low Dose,Xan_Lo,1.0,54.0,71.0,65-80,2.0,F,Y,Y,Y,N,N,Y,Y,2013-01-15,2013-03-27,,1.0,1.0,1.0,1.0
01-709-1102,8.0,10.0,CDISCPILOT01,ADQSCIBC,709,709,1102,WEEK 16,WEEK 8,Wk16,57.0,57.0,56.0,16.0,2013-03-12,2013-03-12,LOCF,Y,CIBIC Score,CIBICVAL,5.0,Xanomeline Low Dose,Xan_Lo,1.0,54.0,71.0,65-80,2.0,F,Y,Y,Y,N,N,Y,Y,2013-01-15,2013-03-27,Y,,,,1.0
01-709-1102,8.0,12.0,CDISCPILOT01,ADQSCIBC,709,709,1102,WEEK 24,WEEK 8,Wk24,57.0,57.0,56.0,24.0,2013-03-12,2013-03-12,LOCF,Y,CIBIC Score,CIBICVAL,5.0,Xanomeline Low Dose,Xan_Lo,1.0,54.0,71.0,65-80,2.0,F,Y,Y,Y,N,N,Y,Y,2013-01-15,2013-03-27,Y,,,,1.0
01-709-1102,9.0,,CDISCPILOT01,ADQSCIBC,709,709,1102,WEEK 12,WEEK 12,,76.0,76.0,84.0,,2013-03-31,2013-03-31,,N,CIBIC Score,CIBICVAL,5.0,Xanomeline Low Dose,Xan_Lo,1.0,54.0,71.0,65-80,2.0,F,Y,Y,Y,N,N,Y,N,2013-01-15,2013-03-27,,1.0,,,
01-709-1168,8.0,8.0,CDISCPILOT01,ADQSCIBC,709,709,1168,WEEK 8,WEEK 8,Wk8,57.0,57.0,56.0,8.0,2013-09-27,2013-09-27,,Y,CIBIC Score,CIBICVAL,5.0,Xanomeline High Dose,Xan_Hi,2.0,81.0,72.0,65-80,2.0,F,Y,Y,Y,N,N,Y,N,2013-08-02,2013-09-26,,1.0,1.0,1.0,1.0
01-709-1168,8.0,10.0,CDISCPILOT01,ADQSCIBC,709,709,1168,WEEK 16,WEEK 8,Wk16,57.0,57.0,56.0,16.0,2013-09-27,2013-09-27,LOCF,Y,CIBIC Score,CIBICVAL,5.0,Xanomeline High Dose,Xan_Hi,2.0,81.0,72.0,65-80,2.0,F,Y,Y,Y,N,N,Y,N,2013-08-02,2013-09-26,Y,,,,1.0
01-709-1168,8.0,12.0,CDISCPILOT01,ADQSCIBC,709,709,1168,WEEK 24,WEEK 8,Wk24,57.0,57.0,56.0,24.0,2013-09-27,2013-09-27,LOCF,Y,CIBIC Score,CIBICVAL,5.0,Xanomeline High Dose,Xan_Hi,2.0,81.0,72.0,65-80,2.0,F,Y,Y,Y,N,N,Y,N,2013-08-02,2013-09-26,Y,,,,1.0
01-709-1217,8.0,8.0,CDISCPILOT01,ADQSCIBC,709,709,1217,WEEK 8,WEEK 8,Wk8,57.0,57.0,56.0,8.0,2013-04-29,2013-04-29,,Y,CIBIC Score,CIBICVAL,6.0,Xanomeline Low Dose,Xan_Lo,1.0,54.0,77.0,65-80,2.0,M,Y,Y,Y,N,Y,Y,Y,2013-03-04,2013-06-11,,1.0,1.0,1.0,1.0
01-709-1217,10.0,10.0,CDISCPILOT01,ADQSCIBC,709,709,1217,WEEK 16,WEEK 16,Wk16,114.0,114.0,112.0,16.0,2013-06-25,2013-06-25,,Y,CIBIC Score,CIBICVAL,5.0,Xanomeline Low Dose,Xan_Lo,1.0,54.0,77.0,65-80,2.0,M,Y,Y,Y,N,Y,Y,N,2013-03-04,2013-06-11,,1.0,1.0,1.0,1.0
01-709-1217,10.0,12.0,CDISCPILOT01,ADQSCIBC,709,709,1217,WEEK 24,WEEK 16,Wk24,114.0,114.0,112.0,24.0,2013-06-25,2013-06-25,LOCF,Y,CIBIC Score,CIBICVAL,5.0,Xanomeline Low Dose,Xan_Lo,1.0,54.0,77.0,65-80,2.0,M,Y,Y,Y,N,Y,Y,N,2013-03-04,2013-06-11,Y,,,,1.0
01-709-1238,8.0,8.0,CDISCPILOT01,ADQSCIBC,709,709,1238,WEEK 8,WEEK 8,Wk8,49.0,49.0,56.0,8.0,2013-07-02,2013-07-02,,Y,CIBIC Score,CIBICVAL,4.0,Xanomeline High Dose,Xan_Hi,2.0,81.0,69.0,65-80,2.0,M,Y,Y,Y,N,N,Y,Y,2013-05-15,2013-08-06,,1.0,1.0,1.0,1.0
01-709-1238,9.0,,CDISCPILOT01,ADQSCIBC,709,709,1238,WEEK 12,WEEK 12,,85.0,85.0,84.0,,2013-08-07,2013-08-07,,N,CIBIC Score,CIBICVAL,4.0,Xanomeline High Dose,Xan_Hi,2.0,81.0,69.0,65-80,2.0,M,Y,Y,Y,N,N,Y,N,2013-05-15,2013-08-06,,1.0,,,
01-709-1238,9.0,10.0,CDISCPILOT01,ADQSCIBC,709,709,1238,WEEK 16,WEEK 12,Wk16,85.0,85.0,84.0,16.0,2013-08-07,2013-08-07,,Y,CIBIC Score,CIBICVAL,4.0,Xanomeline High Dose,Xan_Hi,2.0,81.0,69.0,65-80,2.0,M,Y,Y,Y,N,N,Y,N,2013-05-15,2013-08-06,Y,,,1.0,1.0
01-709-1238,9.0,12.0,CDISCPILOT01,ADQSCIBC,709,709,1238,WEEK 24,WEEK 12,Wk24,85.0,85.0,84.0,24.0,2013-08-07,2013-08-07,LOCF,Y,CIBIC Score,CIBICVAL,4.0,Xanomeline High Dose,Xan_Hi,2.0,81.0,69.0,65-80,2.0,M,Y,Y,Y,N,N,Y,N,2013-05-15,2013-08-06,Y,,,,1.0
01-709-1259,8.0,8.0,CDISCPILOT01,ADQSCIBC,709,709,1259,WEEK 8,WEEK 8,Wk8,57.0,57.0,56.0,8.0,2013-03-23,2013-03-23,,Y,CIBIC Score,CIBICVAL,5.0,Placebo,Pbo,0.0,0.0,82.0,>80,3.0,M,Y,Y,Y,N,Y,Y,Y,2013-01-26,2013-06-13,,1.0,1.0,1.0,1.0
01-709-1259,10.0,10.0,CDISCPILOT01,ADQSCIBC,709,709,1259,WEEK 16,WEEK 16,Wk16,106.0,106.0,112.0,16.0,2013-05-11,2013-05-11,,Y,CIBIC Score,CIBICVAL,5.0,Placebo,Pbo,0.0,0.0,82.0,>80,3.0,M,Y,Y,Y,N,Y,Y,Y,2013-01-26,2013-06-13,,1.0,1.0,1.0,1.0
01-709-1259,10.0,12.0,CDISCPILOT01,ADQSCIBC,709,709,1259,WEEK 24,WEEK 16,Wk24,106.0,106.0,112.0,24.0,2013-05-11,2013-05-11,LOCF,Y,CIBIC Score,CIBICVAL,5.0,Placebo,Pbo,0.0,0.0,82.0,>80,3.0,M,Y,Y,Y,N,Y,Y,Y,2013-01-26,2013-06-13,Y,,,,1.0
01-709-1259,11.0,,CDISCPILOT01,ADQSCIBC,709,709,1259,WEEK 20,WEEK 20,,139.0,139.0,140.0,,2013-06-13,2013-06-13,,N,CIBIC Score,CIBICVAL,5.0,Placebo,Pbo,0.0,0.0,82.0,>80,3.0,M,Y,Y,Y,N,Y,Y,Y,2013-01-26,2013-06-13,,1.0,,,
01-709-1285,8.0,8.0,CDISCPILOT01,ADQSCIBC,709,709,1285,WEEK 8,WEEK 8,Wk8,57.0,57.0,56.0,8.0,2013-05-19,2013-05-19,,Y,CIBIC Score,CIBICVAL,3.0,Xanomeline Low Dose,Xan_Lo,1.0,54.0,87.0,>80,3.0,M,Y,Y,Y,N,N,Y,Y,2013-03-24,2013-05-23,,1.0,1.0,1.0,1.0
01-709-1285,8.0,10.0,CDISCPILOT01,ADQSCIBC,709,709,1285,WEEK 16,WEEK 8,Wk16,57.0,57.0,56.0,16.0,2013-05-19,2013-05-19,LOCF,Y,CIBIC Score,CIBICVAL,3.0,Xanomeline Low Dose,Xan_Lo,1.0,54.0,87.0,>80,3.0,M,Y,Y,Y,N,N,Y,Y,2013-03-24,2013-05-23,Y,,,,1.0
01-709-1285,8.0,12.0,CDISCPILOT01,ADQSCIBC,709,709,1285,WEEK 24,WEEK 8,Wk24,57.0,57.0,56.0,24.0,2013-05-19,2013-05-19,LOCF,Y,CIBIC Score,CIBICVAL,3.0,Xanomeline Low Dose,Xan_Lo,1.0,54.0,87.0,>80,3.0,M,Y,Y,Y,N,N,Y,Y,2013-03-24,2013-05-23,Y,,,,1.0
01-709-1285,9.0,,CDISCPILOT01,ADQSCIBC,709,709,1285,WEEK 12,WEEK 12,,69.0,69.0,84.0,,2013-05-31,2013-05-31,,N,CIBIC Score,CIBICVAL,3.0,Xanomeline Low Dose,Xan_Lo,1.0,54.0,87.0,>80,3.0,M,Y,Y,Y,N,N,Y,N,2013-03-24,2013-05-23,,1.0,,,
01-709-1301,8.0,8.0,CDISCPILOT01,ADQSCIBC,709,709,1301,WEEK 8,WEEK 8,Wk8,57.0,57.0,56.0,8.0,2013-09-13,2013-09-13,,Y,CIBIC Score,CIBICVAL,4.0,Placebo,Pbo,0.0,0.0,62.0,<65,1.0,F,Y,Y,Y,Y,Y,Y,Y,2013-07-19,2014-01-17,,1.0,1.0,1.0,1.0
01-709-1301,10.0,10.0,CDISCPILOT01,ADQSCIBC,709,709,1301,WEEK 16,WEEK 16,Wk16,113.0,113.0,112.0,16.0,2013-11-08,2013-11-08,,Y,CIBIC Score,CIBICVAL,4.0,Placebo,Pbo,0.0,0.0,62.0,<65,1.0,F,Y,Y,Y,Y,Y,Y,Y,2013-07-19,2014-01-17,,1.0,1.0,1.0,1.0
01-709-1301,12.0,12.0,CDISCPILOT01,ADQSCIBC,709,709,1301,WEEK 24,WEEK 24,Wk24,170.0,170.0,168.0,24.0,2014-01-04,2014-01-04,,Y,CIBIC Score,CIBICVAL,5.0,Placebo,Pbo,0.0,0.0,62.0,<65,1.0,F,Y,Y,Y,Y,Y,Y,Y,2013-07-19,2014-01-17,,1.0,1.0,1.0,1.0
01-709-1306,8.0,8.0,CDISCPILOT01,ADQSCIBC,709,709,1306,WEEK 8,WEEK 8,Wk8,59.0,59.0,56.0,8.0,2014-04-02,2014-04-02,,Y,CIBIC Score,CIBICVAL,4.0,Placebo,Pbo,0.0,0.0,60.0,<65,1.0,F,Y,Y,Y,N,Y,Y,Y,2014-02-03,2014-06-16,,1.0,1.0,1.0,1.0
01-709-1306,10.0,10.0,CDISCPILOT01,ADQSCIBC,709,709,1306,WEEK 16,WEEK 16,Wk16,115.0,115.0,112.0,16.0,2014-05-28,2014-05-28,,Y,CIBIC Score,CIBICVAL,5.0,Placebo,Pbo,0.0,0.0,60.0,<65,1.0,F,Y,Y,Y,N,Y,Y,Y,2014-02-03,2014-06-16,,1.0,1.0,1.0,1.0
01-709-1306,11.0,,CDISCPILOT01,ADQSCIBC,709,709,1306,WEEK 20,WEEK 20,,143.0,143.0,140.0,,2014-06-25,2014-06-25,,N,CIBIC Score,CIBICVAL,5.0,Placebo,Pbo,0.0,0.0,60.0,<65,1.0,F,Y,Y,Y,N,Y,Y,N,2014-02-03,2014-06-16,,1.0,,,
01-709-1306,11.0,12.0,CDISCPILOT01,ADQSCIBC,709,709,1306,WEEK 24,WEEK 20,Wk24,143.0,143.0,140.0,24.0,2014-06-25,2014-06-25,,Y,CIBIC Score,CIBICVAL,5.0,Placebo,Pbo,0.0,0.0,60.0,<65,1.0,F,Y,Y,Y,N,Y,Y,N,2014-02-03,2014-06-16,Y,,,1.0,1.0
01-709-1309,8.0,8.0,CDISCPILOT01,ADQSCIBC,709,709,1309,WEEK 8,WEEK 8,Wk8,58.0,58.0,56.0,8.0,2013-08-15,2013-08-15,,Y,CIBIC Score,CIBICVAL,3.0,Xanomeline High Dose,Xan_Hi,2.0,81.0,65.0,65-80,2.0,M,Y,Y,Y,Y,Y,Y,Y,2013-06-19,2013-12-19,,1.0,1.0,1.0,1.0
01-709-1309,10.0,10.0,CDISCPILOT01,ADQSCIBC,709,709,1309,WEEK 16,WEEK 16,Wk16,120.0,120.0,112.0,16.0,2013-10-16,2013-10-16,,Y,CIBIC Score,CIBICVAL,3.0,Xanomeline High Dose,Xan_Hi,2.0,81.0,65.0,65-80,2.0,M,Y,Y,Y,Y,Y,Y,Y,2013-06-19,2013-12-19,,1.0,1.0,1.0,1.0
01-709-1309,12.0,12.0,CDISCPILOT01,ADQSCIBC,709,709,1309,WEEK 24,WEEK 24,Wk24,170.0,170.0,168.0,24.0,2013-12-05,2013-12-05,,Y,CIBIC Score,CIBICVAL,4.0,Xanomeline High Dose,Xan_Hi,2.0,81.0,65.0,65-80,2.0,M,Y,Y,Y,Y,Y,Y,Y,2013-06-19,2013-12-19,,1.0,1.0,1.0,1.0
01-709-1312,8.0,8.0,CDISCPILOT01,ADQSCIBC,709,709,1312,WEEK 8,WEEK 8,Wk8,55.0,55.0,56.0,8.0,2014-06-13,2014-06-13,,Y,CIBIC Score,CIBICVAL,4.0,Placebo,Pbo,0.0,0.0,68.0,65-80,2.0,F,Y,Y,Y,Y,Y,Y,Y,2014-04-20,2014-10-19,,1.0,1.0,1.0,1.0
01-709-1312,10.0,10.0,CDISCPILOT01,ADQSCIBC,709,709,1312,WEEK 16,WEEK 16,Wk16,113.0,113.0,112.0,16.0,2014-08-10,2014-08-10,,Y,CIBIC Score,CIBICVAL,4.0,Placebo,Pbo,0.0,0.0,68.0,65-80,2.0,F,Y,Y,Y,Y,Y,Y,Y,2014-04-20,2014-10-19,,1.0,1.0,1.0,1.0
01-709-1312,12.0,12.0,CDISCPILOT01,ADQSCIBC,709,709,1312,WEEK 24,WEEK 24,Wk24,169.0,169.0,168.0,24.0,2014-10-05,2014-10-05,,Y,CIBIC Score,CIBICVAL,5.0,Placebo,Pbo,0.0,0.0,68.0,65-80,2.0,F,Y,Y,Y,Y,Y,Y,Y,2014-04-20,2014-10-19,,1.0,1.0,1.0,1.0
01-709-1326,8.0,8.0,CDISCPILOT01,ADQSCIBC,709,709,1326,WEEK 8,WEEK 8,Wk8,58.0,58.0,56.0,8.0,2013-06-01,2013-06-01,,Y,CIBIC Score,CIBICVAL,4.0,Xanomeline Low Dose,Xan_Lo,1.0,54.0,75.0,65-80,2.0,F,Y,Y,Y,Y,Y,Y,Y,2013-04-05,2013-10-02,,1.0,1.0,1.0,1.0
01-709-1326,10.0,10.0,CDISCPILOT01,ADQSCIBC,709,709,1326,WEEK 16,WEEK 16,Wk16,113.0,113.0,112.0,16.0,2013-07-26,2013-07-26,,Y,CIBIC Score,CIBICVAL,4.0,Xanomeline Low Dose,Xan_Lo,1.0,54.0,75.0,65-80,2.0,F,Y,Y,Y,Y,Y,Y,Y,2013-04-05,2013-10-02,,1.0,1.0,1.0,1.0
01-709-1326,12.0,12.0,CDISCPILOT01,ADQSCIBC,709,709,1326,WEEK 24,WEEK 24,Wk24,169.0,169.0,168.0,24.0,2013-09-20,2013-09-20,,Y,CIBIC Score,CIBICVAL,3.0,Xanomeline Low Dose,Xan_Lo,1.0,54.0,75.0,65-80,2.0,F,Y,Y,Y,Y,Y,Y,Y,2013-04-05,2013-10-02,,1.0,1.0,1.0,1.0
01-709-1329,4.0,,CDISCPILOT01,ADQSCIBC,709,709,1329,WEEK 2,WEEK 2,,15.0,15.0,14.0,,2013-08-29,2013-08-29,,N,CIBIC Score,CIBICVAL,5.0,Xanomeline High Dose,Xan_Hi,2.0,81.0,70.0,65-80,2.0,M,Y,Y,Y,N,N,N,N,2013-08-15,2013-08-25,,1.0,,,
01-709-1329,4.0,8.0,CDISCPILOT01,ADQSCIBC,709,709,1329,WEEK 8,WEEK 2,Wk8,15.0,15.0,14.0,8.0,2013-08-29,2013-08-29,,Y,CIBIC Score,CIBICVAL,5.0,Xanomeline High Dose,Xan_Hi,2.0,81.0,70.0,65-80,2.0,M,Y,Y,Y,N,N,N,N,2013-08-15,2013-08-25,Y,,,1.0,1.0
01-709-1329,4.0,10.0,CDISCPILOT01,ADQSCIBC,709,709,1329,WEEK 16,WEEK 2,Wk16,15.0,15.0,14.0,16.0,2013-08-29,2013-08-29,LOCF,Y,CIBIC Score,CIBICVAL,5.0,Xanomeline High Dose,Xan_Hi,2.0,81.0,70.0,65-80,2.0,M,Y,Y,Y,N,N,N,N,2013-08-15,2013-08-25,Y,,,,1.0
01-709-1329,4.0,12.0,CDISCPILOT01,ADQSCIBC,709,709,1329,WEEK 24,WEEK 2,Wk24,15.0,15.0,14.0,24.0,2013-08-29,2013-08-29,LOCF,Y,CIBIC Score,CIBICVAL,5.0,Xanomeline High Dose,Xan_Hi,2.0,81.0,70.0,65-80,2.0,M,Y,Y,Y,N,N,N,N,2013-08-15,2013-08-25,Y,,,,1.0
01-709-1339,8.0,8.0,CDISCPILOT01,ADQSCIBC,709,709,1339,WEEK 8,WEEK 8,Wk8,59.0,59.0,56.0,8.0,2013-02-19,2013-02-19,,Y,CIBIC Score,CIBICVAL,4.0,Placebo,Pbo,0.0,0.0,81.0,>80,3.0,M,Y,Y,Y,Y,Y,Y,Y,2012-12-23,2013-06-24,,1.0,1.0,1.0,1.0
01-709-1339,10.0,10.0,CDISCPILOT01,ADQSCIBC,709,709,1339,WEEK 16,WEEK 16,Wk16,113.0,113.0,112.0,16.0,2013-04-14,2013-04-14,,Y,CIBIC Score,CIBICVAL,3.0,Placebo,Pbo,0.0,0.0,81.0,>80,3.0,M,Y,Y,Y,Y,Y,Y,Y,2012-12-23,2013-06-24,,1.0,1.0,1.0,1.0
01-709-1339,12.0,12.0,CDISCPILOT01,ADQSCIBC,709,709,1339,WEEK 24,WEEK 24,Wk24,168.0,168.0,168.0,24.0,2013-06-08,2013-06-08,,Y,CIBIC Score,CIBICVAL,4.0,Placebo,Pbo,0.0,0.0,81.0,>80,3.0,M,Y,Y,Y,Y,Y,Y,Y,2012-12-23,2013-06-24,,1.0,1.0,1.0,1.0
01-709-1424,4.0,,CDISCPILOT01,ADQSCIBC,709,709,1424,WEEK 2,WEEK 2,,6.0,6.0,14.0,,2013-03-08,2013-03-08,,N,CIBIC Score,CIBICVAL,4.0,Xanomeline High Dose,Xan_Hi,2.0,81.0,77.0,65-80,2.0,M,Y,Y,Y,N,N,N,N,2013-03-03,2013-03-07,,1.0,,,
01-709-1424,4.0,8.0,CDISCPILOT01,ADQSCIBC,709,709,1424,WEEK 8,WEEK 2,Wk8,6.0,6.0,14.0,8.0,2013-03-08,2013-03-08,,Y,CIBIC Score,CIBICVAL,4.0,Xanomeline High Dose,Xan_Hi,2.0,81.0,77.0,65-80,2.0,M,Y,Y,Y,N,N,N,N,2013-03-03,2013-03-07,Y,,,1.0,1.0
01-709-1424,4.0,10.0,CDISCPILOT01,ADQSCIBC,709,709,1424,WEEK 16,WEEK 2,Wk16,6.0,6.0,14.0,16.0,2013-03-08,2013-03-08,LOCF,Y,CIBIC Score,CIBICVAL,4.0,Xanomeline High Dose,Xan_Hi,2.0,81.0,77.0,65-80,2.0,M,Y,Y,Y,N,N,N,N,2013-03-03,2013-03-07,Y,,,,1.0
01-709-1424,4.0,12.0,CDISCPILOT01,ADQSCIBC,709,709,1424,WEEK 24,WEEK 2,Wk24,6.0,6.0,14.0,24.0,2013-03-08,2013-03-08,LOCF,Y,CIBIC Score,CIBICVAL,4.0,Xanomeline High Dose,Xan_Hi,2.0,81.0,77.0,65-80,2.0,M,Y,Y,Y,N,N,N,N,2013-03-03,2013-03-07,Y,,,,1.0
01-710-1002,4.0,,CDISCPILOT01,ADQSCIBC,710,710,1002,WEEK 2,WEEK 2,,5.0,5.0,14.0,,2014-01-18,2014-01-18,,N,CIBIC Score,CIBICVAL,5.0,Xanomeline Low Dose,Xan_Lo,1.0,54.0,88.0,>80,3.0,M,Y,Y,Y,N,N,N,Y,2014-01-14,2014-01-18,,1.0,,,
01-710-1002,4.0,8.0,CDISCPILOT01,ADQSCIBC,710,710,1002,WEEK 8,WEEK 2,Wk8,5.0,5.0,14.0,8.0,2014-01-18,2014-01-18,,Y,CIBIC Score,CIBICVAL,5.0,Xanomeline Low Dose,Xan_Lo,1.0,54.0,88.0,>80,3.0,M,Y,Y,Y,N,N,N,Y,2014-01-14,2014-01-18,Y,,,1.0,1.0
01-710-1002,4.0,10.0,CDISCPILOT01,ADQSCIBC,710,710,1002,WEEK 16,WEEK 2,Wk16,5.0,5.0,14.0,16.0,2014-01-18,2014-01-18,LOCF,Y,CIBIC Score,CIBICVAL,5.0,Xanomeline Low Dose,Xan_Lo,1.0,54.0,88.0,>80,3.0,M,Y,Y,Y,N,N,N,Y,2014-01-14,2014-01-18,Y,,,,1.0
01-710-1002,4.0,12.0,CDISCPILOT01,ADQSCIBC,710,710,1002,WEEK 24,WEEK 2,Wk24,5.0,5.0,14.0,24.0,2014-01-18,2014-01-18,LOCF,Y,CIBIC Score,CIBICVAL,5.0,Xanomeline Low Dose,Xan_Lo,1.0,54.0,88.0,>80,3.0,M,Y,Y,Y,N,N,N,Y,2014-01-14,2014-01-18,Y,,,,1.0
01-710-1006,8.0,8.0,CDISCPILOT01,ADQSCIBC,710,710,1006,WEEK 8,WEEK 8,Wk8,56.0,56.0,56.0,8.0,2013-04-06,2013-04-06,,Y,CIBIC Score,CIBICVAL,4.0,Xanomeline High Dose,Xan_Hi,2.0,81.0,77.0,65-80,2.0,M,Y,Y,Y,Y,Y,Y,Y,2013-02-10,2013-08-09,,1.0,1.0,1.0,1.0
01-710-1006,10.0,10.0,CDISCPILOT01,ADQSCIBC,710,710,1006,WEEK 16,WEEK 16,Wk16,112.0,112.0,112.0,16.0,2013-06-01,2013-06-01,,Y,CIBIC Score,CIBICVAL,3.0,Xanomeline High Dose,Xan_Hi,2.0,81.0,77.0,65-80,2.0,M,Y,Y,Y,Y,Y,Y,Y,2013-02-10,2013-08-09,,1.0,1.0,1.0,1.0
01-710-1006,12.0,12.0,CDISCPILOT01,ADQSCIBC,710,710,1006,WEEK 24,WEEK 24,Wk24,168.0,168.0,168.0,24.0,2013-07-27,2013-07-27,,Y,CIBIC Score,CIBICVAL,4.0,Xanomeline High Dose,Xan_Hi,2.0,81.0,77.0,65-80,2.0,M,Y,Y,Y,Y,Y,Y,Y,2013-02-10,2013-08-09,,1.0,1.0,1.0,1.0
01-710-1027,8.0,8.0,CDISCPILOT01,ADQSCIBC,710,710,1027,WEEK 8,WEEK 8,Wk8,56.0,56.0,56.0,8.0,2014-04-24,2014-04-24,,Y,CIBIC Score,CIBICVAL,4.0,Placebo,Pbo,0.0,0.0,83.0,>80,3.0,M,Y,Y,Y,Y,Y,Y,Y,2014-02-28,2014-08-29,,1.0,1.0,1.0,1.0
01-710-1027,10.0,10.0,CDISCPILOT01,ADQSCIBC,710,710,1027,WEEK 16,WEEK 16,Wk16,113.0,113.0,112.0,16.0,2014-06-20,2014-06-20,,Y,CIBIC Score,CIBICVAL,5.0,Placebo,Pbo,0.0,0.0,83.0,>80,3.0,M,Y,Y,Y,Y,Y,Y,Y,2014-02-28,2014-08-29,,1.0,1.0,1.0,1.0
01-710-1027,12.0,12.0,CDISCPILOT01,ADQSCIBC,710,710,1027,WEEK 24,WEEK 24,Wk24,173.0,173.0,168.0,24.0,2014-08-19,2014-08-19,,Y,CIBIC Score,CIBICVAL,5.0,Placebo,Pbo,0.0,0.0,83.0,>80,3.0,M,Y,Y,Y,Y,Y,Y,Y,2014-02-28,2014-08-29,,1.0,1.0,1.0,1.0
01-710-1045,8.0,8.0,CDISCPILOT01,ADQSCIBC,710,710,1045,WEEK 8,WEEK 8,Wk8,57.0,57.0,56.0,8.0,2013-07-29,2013-07-29,,Y,CIBIC Score,CIBICVAL,5.0,Xanomeline Low Dose,Xan_Lo,1.0,54.0,83.0,>80,3.0,F,Y,Y,Y,N,N,Y,Y,2013-06-03,2013-08-13,,1.0,1.0,1.0,1.0
01-710-1045,8.0,10.0,CDISCPILOT01,ADQSCIBC,710,710,1045,WEEK 16,WEEK 8,Wk16,57.0,57.0,56.0,16.0,2013-07-29,2013-07-29,LOCF,Y,CIBIC Score,CIBICVAL,5.0,Xanomeline Low Dose,Xan_Lo,1.0,54.0,83.0,>80,3.0,F,Y,Y,Y,N,N,Y,Y,2013-06-03,2013-08-13,Y,,,,1.0
01-710-1045,8.0,12.0,CDISCPILOT01,ADQSCIBC,710,710,1045,WEEK 24,WEEK 8,Wk24,57.0,57.0,56.0,24.0,2013-07-29,2013-07-29,LOCF,Y,CIBIC Score,CIBICVAL,5.0,Xanomeline Low Dose,Xan_Lo,1.0,54.0,83.0,>80,3.0,F,Y,Y,Y,N,N,Y,Y,2013-06-03,2013-08-13,Y,,,,1.0
01-710-1045,9.0,,CDISCPILOT01,ADQSCIBC,710,710,1045,WEEK 12,WEEK 12,,76.0,76.0,84.0,,2013-08-17,2013-08-17,,N,CIBIC Score,CIBICVAL,5.0,Xanomeline Low Dose,Xan_Lo,1.0,54.0,83.0,>80,3.0,F,Y,Y,Y,N,N,Y,N,2013-06-03,2013-08-13,,1.0,,,
01-710-1053,8.0,8.0,CDISCPILOT01,ADQSCIBC,710,710,1053,WEEK 8,WEEK 8,Wk8,52.0,52.0,56.0,8.0,2013-02-15,2013-02-15,,Y,CIBIC Score,CIBICVAL,4.0,Xanomeline Low Dose,Xan_Lo,1.0,54.0,84.0,>80,3.0,F,Y,Y,Y,N,N,Y,N,2012-12-26,2013-02-10,,1.0,1.0,1.0,1.0
01-710-1053,8.0,10.0,CDISCPILOT01,ADQSCIBC,710,710,1053,WEEK 16,WEEK 8,Wk16,52.0,52.0,56.0,16.0,2013-02-15,2013-02-15,LOCF,Y,CIBIC Score,CIBICVAL,4.0,Xanomeline Low Dose,Xan_Lo,1.0,54.0,84.0,>80,3.0,F,Y,Y,Y,N,N,Y,N,2012-12-26,2013-02-10,Y,,,,1.0
01-710-1053,8.0,12.0,CDISCPILOT01,ADQSCIBC,710,710,1053,WEEK 24,WEEK 8,Wk24,52.0,52.0,56.0,24.0,2013-02-15,2013-02-15,LOCF,Y,CIBIC Score,CIBICVAL,4.0,Xanomeline Low Dose,Xan_Lo,1.0,54.0,84.0,>80,3.0,F,Y,Y,Y,N,N,Y,N,2012-12-26,2013-02-10,Y,,,,1.0
01-710-1060,8.0,8.0,CDISCPILOT01,ADQSCIBC,710,710,1060,WEEK 8,WEEK 8,Wk8,57.0,57.0,56.0,8.0,2013-02-26,2013-02-26,,Y,CIBIC Score,CIBICVAL,4.0,Placebo,Pbo,0.0,0.0,82.0,>80,3.0,M,Y,Y,Y,Y,Y,Y,Y,2013-01-01,2013-07-05,,1.0,1.0,1.0,1.0
01-710-1060,10.0,10.0,CDISCPILOT01,ADQSCIBC,710,710,1060,WEEK 16,WEEK 16,Wk16,113.0,113.0,112.0,16.0,2013-04-23,2013-04-23,,Y,CIBIC Score,CIBICVAL,3.0,Placebo,Pbo,0.0,0.0,82.0,>80,3.0,M,Y,Y,Y,Y,Y,Y,Y,2013-01-01,2013-07-05,,1.0,1.0,1.0,1.0
01-710-1060,12.0,12.0,CDISCPILOT01,ADQSCIBC,710,710,1060,WEEK 24,WEEK 24,Wk24,172.0,172.0,168.0,24.0,2013-06-21,2013-06-21,,Y,CIBIC Score,CIBICVAL,4.0,Placebo,Pbo,0.0,0.0,82.0,>80,3.0,M,Y,Y,Y,Y,Y,Y,Y,2013-01-01,2013-07-05,,1.0,1.0,1.0,1.0
01-710-1070,8.0,8.0,CDISCPILOT01,ADQSCIBC,710,710,1070,WEEK 8,WEEK 8,Wk8,59.0,59.0,56.0,8.0,2012-11-05,2012-11-05,,Y,CIBIC Score,CIBICVAL,5.0,Xanomeline High Dose,Xan_Hi,2.0,81.0,85.0,>80,3.0,F,Y,Y,Y,N,Y,Y,Y,2012-09-08,2013-01-22,,1.0,1.0,1.0,1.0
01-710-1070,10.0,10.0,CDISCPILOT01,ADQSCIBC,710,710,1070,WEEK 16,WEEK 16,Wk16,112.0,112.0,112.0,16.0,2012-12-28,2012-12-28,,Y,CIBIC Score,CIBICVAL,4.0,Xanomeline High Dose,Xan_Hi,2.0,81.0,85.0,>80,3.0,F,Y,Y,Y,N,Y,Y,Y,2012-09-08,2013-01-22,,1.0,1.0,1.0,1.0
01-710-1070,10.0,12.0,CDISCPILOT01,ADQSCIBC,710,710,1070,WEEK 24,WEEK 16,Wk24,112.0,112.0,112.0,24.0,2012-12-28,2012-12-28,LOCF,Y,CIBIC Score,CIBICVAL,4.0,Xanomeline High Dose,Xan_Hi,2.0,81.0,85.0,>80,3.0,F,Y,Y,Y,N,Y,Y,Y,2012-09-08,2013-01-22,Y,,,,1.0
01-710-1077,8.0,8.0,CDISCPILOT01,ADQSCIBC,710,710,1077,WEEK 8,WEEK 8,Wk8,57.0,57.0,56.0,8.0,2014-01-12,2014-01-12,,Y,CIBIC Score,CIBICVAL,4.0,Placebo,Pbo,0.0,0.0,76.0,65-80,2.0,F,Y,Y,Y,Y,Y,Y,Y,2013-11-17,2014-05-18,,1.0,1.0,1.0,1.0
01-710-1077,10.0,10.0,CDISCPILOT01,ADQSCIBC,710,710,1077,WEEK 16,WEEK 16,Wk16,113.0,113.0,112.0,16.0,2014-03-09,2014-03-09,,Y,CIBIC Score,CIBICVAL,4.0,Placebo,Pbo,0.0,0.0,76.0,65-80,2.0,F,Y,Y,Y,Y,Y,Y,Y,2013-11-17,2014-05-18,,1.0,1.0,1.0,1.0
01-710-1077,12.0,12.0,CDISCPILOT01,ADQSCIBC,710,710,1077,WEEK 24,WEEK 24,Wk24,168.0,168.0,168.0,24.0,2014-05-03,2014-05-03,,Y,CIBIC Score,CIBICVAL,5.0,Placebo,Pbo,0.0,0.0,76.0,65-80,2.0,F,Y,Y,Y,Y,Y,Y,Y,2013-11-17,2014-05-18,,1.0,1.0,1.0,1.0
01-710-1078,8.0,8.0,CDISCPILOT01,ADQSCIBC,710,710,1078,WEEK 8,WEEK 8,Wk8,62.0,62.0,56.0,8.0,2013-11-17,2013-11-17,,Y,CIBIC Score,CIBICVAL,5.0,Placebo,Pbo,0.0,0.0,81.0,>80,3.0,F,Y,Y,Y,Y,Y,Y,Y,2013-09-17,2014-03-23,,1.0,1.0,1.0,1.0
01-710-1078,10.0,10.0,CDISCPILOT01,ADQSCIBC,710,710,1078,WEEK 16,WEEK 16,Wk16,118.0,118.0,112.0,16.0,2014-01-12,2014-01-12,,Y,CIBIC Score,CIBICVAL,4.0,Placebo,Pbo,0.0,0.0,81.0,>80,3.0,F,Y,Y,Y,Y,Y,Y,Y,2013-09-17,2014-03-23,,1.0,1.0,1.0,1.0
01-710-1078,12.0,12.0,CDISCPILOT01,ADQSCIBC,710,710,1078,WEEK 24,WEEK 24,Wk24,173.0,173.0,168.0,24.0,2014-03-08,2014-03-08,,Y,CIBIC Score,CIBICVAL,4.0,Placebo,Pbo,0.0,0.0,81.0,>80,3.0,F,Y,Y,Y,Y,Y,Y,Y,2013-09-17,2014-03-23,,1.0,1.0,1.0,1.0
01-710-1142,5.0,,CDISCPILOT01,ADQSCIBC,710,710,1142,WEEK 4,WEEK 4,,22.0,22.0,28.0,,2012-10-23,2012-10-23,,N,CIBIC Score,CIBICVAL,4.0,Xanomeline High Dose,Xan_Hi,2.0,81.0,76.0,65-80,2.0,F,Y,Y,Y,N,N,N,N,2012-10-02,2012-10-20,,1.0,,,
01-710-1142,5.0,8.0,CDISCPILOT01,ADQSCIBC,710,710,1142,WEEK 8,WEEK 4,Wk8,22.0,22.0,28.0,8.0,2012-10-23,2012-10-23,,Y,CIBIC Score,CIBICVAL,4.0,Xanomeline High Dose,Xan_Hi,2.0,81.0,76.0,65-80,2.0,F,Y,Y,Y,N,N,N,N,2012-10-02,2012-10-20,Y,,,1.0,1.0
01-710-1142,5.0,10.0,CDISCPILOT01,ADQSCIBC,710,710,1142,WEEK 16,WEEK 4,Wk16,22.0,22.0,28.0,16.0,2012-10-23,2012-10-23,LOCF,Y,CIBIC Score,CIBICVAL,4.0,Xanomeline High Dose,Xan_Hi,2.0,81.0,76.0,65-80,2.0,F,Y,Y,Y,N,N,N,N,2012-10-02,2012-10-20,Y,,,,1.0
01-710-1142,5.0,12.0,CDISCPILOT01,ADQSCIBC,710,710,1142,WEEK 24,WEEK 4,Wk24,22.0,22.0,28.0,24.0,2012-10-23,2012-10-23,LOCF,Y,CIBIC Score,CIBICVAL,4.0,Xanomeline High Dose,Xan_Hi,2.0,81.0,76.0,65-80,2.0,F,Y,Y,Y,N,N,N,N,2012-10-02,2012-10-20,Y,,,,1.0
01-710-1154,7.0,,CDISCPILOT01,ADQSCIBC,710,710,1154,WEEK 6,WEEK 6,,42.0,42.0,42.0,,2014-05-09,2014-05-09,,N,CIBIC Score,CIBICVAL,4.0,Xanomeline Low Dose,Xan_Lo,1.0,54.0,84.0,>80,3.0,M,Y,Y,Y,N,N,N,N,2014-03-29,2014-04-27,,1.0,,,
01-710-1154,7.0,8.0,CDISCPILOT01,ADQSCIBC,710,710,1154,WEEK 8,WEEK 6,Wk8,42.0,42.0,42.0,8.0,2014-05-09,2014-05-09,,Y,CIBIC Score,CIBICVAL,4.0,Xanomeline Low Dose,Xan_Lo,1.0,54.0,84.0,>80,3.0,M,Y,Y,Y,N,N,N,N,2014-03-29,2014-04-27,Y,,,1.0,1.0
01-710-1154,7.0,10.0,CDISCPILOT01,ADQSCIBC,710,710,1154,WEEK 16,WEEK 6,Wk16,42.0,42.0,42.0,16.0,2014-05-09,2014-05-09,LOCF,Y,CIBIC Score,CIBICVAL,4.0,Xanomeline Low Dose,Xan_Lo,1.0,54.0,84.0,>80,3.0,M,Y,Y,Y,N,N,N,N,2014-03-29,2014-04-27,Y,,,,1.0
01-710-1154,7.0,12.0,CDISCPILOT01,ADQSCIBC,710,710,1154,WEEK 24,WEEK 6,Wk24,42.0,42.0,42.0,24.0,2014-05-09,2014-05-09,LOCF,Y,CIBIC Score,CIBICVAL,4.0,Xanomeline Low Dose,Xan_Lo,1.0,54.0,84.0,>80,3.0,M,Y,Y,Y,N,N,N,N,2014-03-29,2014-04-27,Y,,,,1.0
01-710-1166,8.0,8.0,CDISCPILOT01,ADQSCIBC,710,710,1166,WEEK 8,WEEK 8,Wk8,57.0,57.0,56.0,8.0,2013-01-25,2013-01-25,,Y,CIBIC Score,CIBICVAL,4.0,Xanomeline Low Dose,Xan_Lo,1.0,54.0,81.0,>80,3.0,F,Y,Y,Y,N,Y,Y,Y,2012-11-30,2013-03-19,,1.0,1.0,1.0,1.0
01-710-1166,8.0,10.0,CDISCPILOT01,ADQSCIBC,710,710,1166,WEEK 16,WEEK 8,Wk16,57.0,57.0,56.0,16.0,2013-01-25,2013-01-25,LOCF,Y,CIBIC Score,CIBICVAL,4.0,Xanomeline Low Dose,Xan_Lo,1.0,54.0,81.0,>80,3.0,F,Y,Y,Y,N,Y,Y,Y,2012-11-30,2013-03-19,Y,,,,1.0
01-710-1166,8.0,12.0,CDISCPILOT01,ADQSCIBC,710,710,1166,WEEK 24,WEEK 8,Wk24,57.0,57.0,56.0,24.0,2013-01-25,2013-01-25,LOCF,Y,CIBIC Score,CIBICVAL,4.0,Xanomeline Low Dose,Xan_Lo,1.0,54.0,81.0,>80,3.0,F,Y,Y,Y,N,Y,Y,Y,2012-11-30,2013-03-19,Y,,,,1.0
01-710-1183,8.0,8.0,CDISCPILOT01,ADQSCIBC,710,710,1183,WEEK 8,WEEK 8,Wk8,57.0,57.0,56.0,8.0,2014-01-11,2014-01-11,,Y,CIBIC Score,CIBICVAL,3.0,Placebo,Pbo,0.0,0.0,80.0,65-80,2.0,F,Y,Y,Y,Y,Y,Y,Y,2013-11-16,2014-05-17,,1.0,1.0,1.0,1.0
01-710-1183,10.0,10.0,CDISCPILOT01,ADQSCIBC,710,710,1183,WEEK 16,WEEK 16,Wk16,115.0,115.0,112.0,16.0,2014-03-10,2014-03-10,,Y,CIBIC Score,CIBICVAL,3.0,Placebo,Pbo,0.0,0.0,80.0,65-80,2.0,F,Y,Y,Y,Y,Y,Y,Y,2013-11-16,2014-05-17,,1.0,1.0,1.0,1.0
01-710-1183,12.0,12.0,CDISCPILOT01,ADQSCIBC,710,710,1183,WEEK 24,WEEK 24,Wk24,169.0,169.0,168.0,24.0,2014-05-03,2014-05-03,,Y,CIBIC Score,CIBICVAL,4.0,Placebo,Pbo,0.0,0.0,80.0,65-80,2.0,F,Y,Y,Y,Y,Y,Y,Y,2013-11-16,2014-05-17,,1.0,1.0,1.0,1.0
01-710-1187,8.0,8.0,CDISCPILOT01,ADQSCIBC,710,710,1187,WEEK 8,WEEK 8,Wk8,58.0,58.0,56.0,8.0,2013-01-06,2013-01-06,,Y,CIBIC Score,CIBICVAL,5.0,Xanomeline High Dose,Xan_Hi,2.0,81.0,78.0,65-80,2.0,F,Y,Y,Y,Y,Y,Y,Y,2012-11-10,2013-05-12,,1.0,1.0,1.0,1.0
01-710-1187,10.0,10.0,CDISCPILOT01,ADQSCIBC,710,710,1187,WEEK 16,WEEK 16,Wk16,113.0,113.0,112.0,16.0,2013-03-02,2013-03-02,,Y,CIBIC Score,CIBICVAL,4.0,Xanomeline High Dose,Xan_Hi,2.0,81.0,78.0,65-80,2.0,F,Y,Y,Y,Y,Y,Y,Y,2012-11-10,2013-05-12,,1.0,1.0,1.0,1.0
01-710-1187,12.0,12.0,CDISCPILOT01,ADQSCIBC,710,710,1187,WEEK 24,WEEK 24,Wk24,170.0,170.0,168.0,24.0,2013-04-28,2013-04-28,,Y,CIBIC Score,CIBICVAL,6.0,Xanomeline High Dose,Xan_Hi,2.0,81.0,78.0,65-80,2.0,F,Y,Y,Y,Y,Y,Y,Y,2012-11-10,2013-05-12,,1.0,1.0,1.0,1.0
01-710-1235,8.0,8.0,CDISCPILOT01,ADQSCIBC,710,710,1235,WEEK 8,WEEK 8,Wk8,57.0,57.0,56.0,8.0,2012-11-21,2012-11-21,,Y,CIBIC Score,CIBICVAL,4.0,Xanomeline Low Dose,Xan_Lo,1.0,54.0,56.0,<65,1.0,F,Y,Y,Y,Y,Y,Y,Y,2012-09-26,2013-03-27,,1.0,1.0,1.0,1.0
01-710-1235,10.0,10.0,CDISCPILOT01,ADQSCIBC,710,710,1235,WEEK 16,WEEK 16,Wk16,112.0,112.0,112.0,16.0,2013-01-15,2013-01-15,,Y,CIBIC Score,CIBICVAL,3.0,Xanomeline Low Dose,Xan_Lo,1.0,54.0,56.0,<65,1.0,F,Y,Y,Y,Y,Y,Y,Y,2012-09-26,2013-03-27,,1.0,1.0,1.0,1.0
01-710-1235,12.0,12.0,CDISCPILOT01,ADQSCIBC,710,710,1235,WEEK 24,WEEK 24,Wk24,169.0,169.0,168.0,24.0,2013-03-13,2013-03-13,,Y,CIBIC Score,CIBICVAL,3.0,Xanomeline Low Dose,Xan_Lo,1.0,54.0,56.0,<65,1.0,F,Y,Y,Y,Y,Y,Y,Y,2012-09-26,2013-03-27,,1.0,1.0,1.0,1.0
01-710-1249,8.0,8.0,CDISCPILOT01,ADQSCIBC,710,710,1249,WEEK 8,WEEK 8,Wk8,57.0,57.0,56.0,8.0,2014-02-22,2014-02-22,,Y,CIBIC Score,CIBICVAL,4.0,Xanomeline High Dose,Xan_Hi,2.0,81.0,79.0,65-80,2.0,M,Y,Y,Y,Y,Y,Y,Y,2013-12-28,2014-06-28,,1.0,1.0,1.0,1.0
01-710-1249,10.0,10.0,CDISCPILOT01,ADQSCIBC,710,710,1249,WEEK 16,WEEK 16,Wk16,113.0,113.0,112.0,16.0,2014-04-19,2014-04-19,,Y,CIBIC Score,CIBICVAL,5.0,Xanomeline High Dose,Xan_Hi,2.0,81.0,79.0,65-80,2.0,M,Y,Y,Y,Y,Y,Y,Y,2013-12-28,2014-06-28,,1.0,1.0,1.0,1.0
01-710-1249,12.0,12.0,CDISCPILOT01,ADQSCIBC,710,710,1249,WEEK 24,WEEK 24,Wk24,169.0,169.0,168.0,24.0,2014-06-14,2014-06-14,,Y,CIBIC Score,CIBICVAL,5.0,Xanomeline High Dose,Xan_Hi,2.0,81.0,79.0,65-80,2.0,M,Y,Y,Y,Y,Y,Y,Y,2013-12-28,2014-06-28,,1.0,1.0,1.0,1.0
01-710-1264,8.0,8.0,CDISCPILOT01,ADQSCIBC,710,710,1264,WEEK 8,WEEK 8,Wk8,57.0,57.0,56.0,8.0,2013-08-08,2013-08-08,,Y,CIBIC Score,CIBICVAL,5.0,Placebo,Pbo,0.0,0.0,78.0,65-80,2.0,M,Y,Y,Y,N,Y,Y,Y,2013-06-13,2013-10-11,,1.0,1.0,1.0,1.0
01-710-1264,10.0,10.0,CDISCPILOT01,ADQSCIBC,710,710,1264,WEEK 16,WEEK 16,Wk16,111.0,111.0,112.0,16.0,2013-10-01,2013-10-01,,Y,CIBIC Score,CIBICVAL,4.0,Placebo,Pbo,0.0,0.0,78.0,65-80,2.0,M,Y,Y,Y,N,Y,Y,Y,2013-06-13,2013-10-11,,1.0,1.0,1.0,1.0
01-710-1264,10.0,12.0,CDISCPILOT01,ADQSCIBC,710,710,1264,WEEK 24,WEEK 16,Wk24,111.0,111.0,112.0,24.0,2013-10-01,2013-10-01,LOCF,Y,CIBIC Score,CIBICVAL,4.0,Placebo,Pbo,0.0,0.0,78.0,65-80,2.0,M,Y,Y,Y,N,Y,Y,Y,2013-06-13,2013-10-11,Y,,,,1.0
01-710-1264,11.0,,CDISCPILOT01,ADQSCIBC,710,710,1264,WEEK 20,WEEK 20,,122.0,122.0,140.0,,2013-10-12,2013-10-12,,N,CIBIC Score,CIBICVAL,4.0,Placebo,Pbo,0.0,0.0,78.0,65-80,2.0,M,Y,Y,Y,N,Y,Y,N,2013-06-13,2013-10-11,,1.0,,,
01-710-1270,4.0,,CDISCPILOT01,ADQSCIBC,710,710,1270,WEEK 2,WEEK 2,,18.0,18.0,14.0,,2014-03-01,2014-03-01,,N,CIBIC Score,CIBICVAL,4.0,Xanomeline Low Dose,Xan_Lo,1.0,54.0,83.0,>80,3.0,F,Y,Y,Y,N,N,N,Y,2014-02-12,2014-03-01,,1.0,,,
01-710-1270,4.0,8.0,CDISCPILOT01,ADQSCIBC,710,710,1270,WEEK 8,WEEK 2,Wk8,18.0,18.0,14.0,8.0,2014-03-01,2014-03-01,,Y,CIBIC Score,CIBICVAL,4.0,Xanomeline Low Dose,Xan_Lo,1.0,54.0,83.0,>80,3.0,F,Y,Y,Y,N,N,N,Y,2014-02-12,2014-03-01,Y,,,1.0,1.0
01-710-1270,4.0,10.0,CDISCPILOT01,ADQSCIBC,710,710,1270,WEEK 16,WEEK 2,Wk16,18.0,18.0,14.0,16.0,2014-03-01,2014-03-01,LOCF,Y,CIBIC Score,CIBICVAL,4.0,Xanomeline Low Dose,Xan_Lo,1.0,54.0,83.0,>80,3.0,F,Y,Y,Y,N,N,N,Y,2014-02-12,2014-03-01,Y,,,,1.0
01-710-1270,4.0,12.0,CDISCPILOT01,ADQSCIBC,710,710,1270,WEEK 24,WEEK 2,Wk24,18.0,18.0,14.0,24.0,2014-03-01,2014-03-01,LOCF,Y,CIBIC Score,CIBICVAL,4.0,Xanomeline Low Dose,Xan_Lo,1.0,54.0,83.0,>80,3.0,F,Y,Y,Y,N,N,N,Y,2014-02-12,2014-03-01,Y,,,,1.0
01-710-1278,8.0,8.0,CDISCPILOT01,ADQSCIBC,710,710,1278,WEEK 8,WEEK 8,Wk8,60.0,60.0,56.0,8.0,2013-02-21,2013-02-21,,Y,CIBIC Score,CIBICVAL,3.0,Xanomeline High Dose,Xan_Hi,2.0,81.0,81.0,>80,3.0,M,Y,Y,Y,N,N,Y,Y,2012-12-24,2013-02-26,,1.0,1.0,1.0,1.0
01-710-1278,8.0,10.0,CDISCPILOT01,ADQSCIBC,710,710,1278,WEEK 16,WEEK 8,Wk16,60.0,60.0,56.0,16.0,2013-02-21,2013-02-21,LOCF,Y,CIBIC Score,CIBICVAL,3.0,Xanomeline High Dose,Xan_Hi,2.0,81.0,81.0,>80,3.0,M,Y,Y,Y,N,N,Y,Y,2012-12-24,2013-02-26,Y,,,,1.0
01-710-1278,8.0,12.0,CDISCPILOT01,ADQSCIBC,710,710,1278,WEEK 24,WEEK 8,Wk24,60.0,60.0,56.0,24.0,2013-02-21,2013-02-21,LOCF,Y,CIBIC Score,CIBICVAL,3.0,Xanomeline High Dose,Xan_Hi,2.0,81.0,81.0,>80,3.0,M,Y,Y,Y,N,N,Y,Y,2012-12-24,2013-02-26,Y,,,,1.0
01-710-1278,9.0,,CDISCPILOT01,ADQSCIBC,710,710,1278,WEEK 12,WEEK 12,,70.0,70.0,84.0,,2013-03-03,2013-03-03,,N,CIBIC Score,CIBICVAL,3.0,Xanomeline High Dose,Xan_Hi,2.0,81.0,81.0,>80,3.0,M,Y,Y,Y,N,N,Y,N,2012-12-24,2013-02-26,,1.0,,,
01-710-1300,8.0,8.0,CDISCPILOT01,ADQSCIBC,710,710,1300,WEEK 8,WEEK 8,Wk8,59.0,59.0,56.0,8.0,2013-02-11,2013-02-11,,Y,CIBIC Score,CIBICVAL,4.0,Xanomeline Low Dose,Xan_Lo,1.0,54.0,78.0,65-80,2.0,F,Y,Y,Y,N,N,Y,Y,2012-12-15,2013-02-15,,1.0,1.0,1.0,1.0
01-710-1300,8.0,10.0,CDISCPILOT01,ADQSCIBC,710,710,1300,WEEK 16,WEEK 8,Wk16,59.0,59.0,56.0,16.0,2013-02-11,2013-02-11,LOCF,Y,CIBIC Score,CIBICVAL,4.0,Xanomeline Low Dose,Xan_Lo,1.0,54.0,78.0,65-80,2.0,F,Y,Y,Y,N,N,Y,Y,2012-12-15,2013-02-15,Y,,,,1.0
01-710-1300,8.0,12.0,CDISCPILOT01,ADQSCIBC,710,710,1300,WEEK 24,WEEK 8,Wk24,59.0,59.0,56.0,24.0,2013-02-11,2013-02-11,LOCF,Y,CIBIC Score,CIBICVAL,4.0,Xanomeline Low Dose,Xan_Lo,1.0,54.0,78.0,65-80,2.0,F,Y,Y,Y,N,N,Y,Y,2012-12-15,2013-02-15,Y,,,,1.0
01-710-1300,9.0,,CDISCPILOT01,ADQSCIBC,710,710,1300,WEEK 12,WEEK 12,,67.0,67.0,84.0,,2013-02-19,2013-02-19,,N,CIBIC Score,CIBICVAL,4.0,Xanomeline Low Dose,Xan_Lo,1.0,54.0,78.0,65-80,2.0,F,Y,Y,Y,N,N,Y,N,2012-12-15,2013-02-15,,1.0,,,
01-710-1315,8.0,8.0,CDISCPILOT01,ADQSCIBC,710,710,1315,WEEK 8,WEEK 8,Wk8,56.0,56.0,56.0,8.0,2013-04-23,2013-04-23,,Y,CIBIC Score,CIBICVAL,4.0,Placebo,Pbo,0.0,0.0,83.0,>80,3.0,F,Y,Y,Y,N,Y,Y,Y,2013-02-27,2013-07-06,,1.0,1.0,1.0,1.0
01-710-1315,10.0,10.0,CDISCPILOT01,ADQSCIBC,710,710,1315,WEEK 16,WEEK 16,Wk16,112.0,112.0,112.0,16.0,2013-06-18,2013-06-18,,Y,CIBIC Score,CIBICVAL,4.0,Placebo,Pbo,0.0,0.0,83.0,>80,3.0,F,Y,Y,Y,N,Y,Y,Y,2013-02-27,2013-07-06,,1.0,1.0,1.0,1.0
01-710-1315,10.0,12.0,CDISCPILOT01,ADQSCIBC,710,710,1315,WEEK 24,WEEK 16,Wk24,112.0,112.0,112.0,24.0,2013-06-18,2013-06-18,LOCF,Y,CIBIC Score,CIBICVAL,4.0,Placebo,Pbo,0.0,0.0,83.0,>80,3.0,F,Y,Y,Y,N,Y,Y,Y,2013-02-27,2013-07-06,Y,,,,1.0
01-710-1315,11.0,,CDISCPILOT01,ADQSCIBC,710,710,1315,WEEK 20,WEEK 20,,140.0,140.0,140.0,,2013-07-16,2013-07-16,,N,CIBIC Score,CIBICVAL,4.0,Placebo,Pbo,0.0,0.0,83.0,>80,3.0,F,Y,Y,Y,N,Y,Y,N,2013-02-27,2013-07-06,,1.0,,,
01-710-1354,8.0,8.0,CDISCPILOT01,ADQSCIBC,710,710,1354,WEEK 8,WEEK 8,Wk8,57.0,57.0,56.0,8.0,2013-01-06,2013-01-06,,Y,CIBIC Score,CIBICVAL,5.0,Xanomeline High Dose,Xan_Hi,2.0,81.0,73.0,65-80,2.0,M,Y,Y,Y,Y,Y,Y,Y,2012-11-11,2013-05-01,,1.0,1.0,1.0,1.0
01-710-1354,10.0,10.0,CDISCPILOT01,ADQSCIBC,710,710,1354,WEEK 16,WEEK 16,Wk16,112.0,112.0,112.0,16.0,2013-03-02,2013-03-02,,Y,CIBIC Score,CIBICVAL,5.0,Xanomeline High Dose,Xan_Hi,2.0,81.0,73.0,65-80,2.0,M,Y,Y,Y,Y,Y,Y,Y,2012-11-11,2013-05-01,,1.0,1.0,1.0,1.0
01-710-1354,12.0,12.0,CDISCPILOT01,ADQSCIBC,710,710,1354,WEEK 24,WEEK 24,Wk24,162.0,162.0,168.0,24.0,2013-04-21,2013-04-21,,Y,CIBIC Score,CIBICVAL,5.0,Xanomeline High Dose,Xan_Hi,2.0,81.0,73.0,65-80,2.0,M,Y,Y,Y,Y,Y,Y,Y,2012-11-11,2013-05-01,,1.0,1.0,1.0,1.0
01-710-1358,8.0,8.0,CDISCPILOT01,ADQSCIBC,710,710,1358,WEEK 8,WEEK 8,Wk8,59.0,59.0,56.0,8.0,2012-11-14,2012-11-14,,Y,CIBIC Score,CIBICVAL,4.0,Xanomeline Low Dose,Xan_Lo,1.0,54.0,82.0,>80,3.0,M,Y,Y,Y,Y,Y,Y,Y,2012-09-17,2013-02-09,,1.0,1.0,1.0,1.0
01-710-1358,10.0,10.0,CDISCPILOT01,ADQSCIBC,710,710,1358,WEEK 16,WEEK 16,Wk16,115.0,115.0,112.0,16.0,2013-01-09,2013-01-09,,Y,CIBIC Score,CIBICVAL,5.0,Xanomeline Low Dose,Xan_Lo,1.0,54.0,82.0,>80,3.0,M,Y,Y,Y,Y,Y,Y,Y,2012-09-17,2013-02-09,,1.0,1.0,1.0,1.0
01-710-1358,10.0,12.0,CDISCPILOT01,ADQSCIBC,710,710,1358,WEEK 24,WEEK 16,Wk24,115.0,115.0,112.0,24.0,2013-01-09,2013-01-09,LOCF,Y,CIBIC Score,CIBICVAL,5.0,Xanomeline Low Dose,Xan_Lo,1.0,54.0,82.0,>80,3.0,M,Y,Y,Y,Y,Y,Y,Y,2012-09-17,2013-02-09,Y,,,,1.0
01-710-1368,8.0,8.0,CDISCPILOT01,ADQSCIBC,710,710,1368,WEEK 8,WEEK 8,Wk8,58.0,58.0,56.0,8.0,2013-12-19,2013-12-19,,Y,CIBIC Score,CIBICVAL,4.0,Placebo,Pbo,0.0,0.0,88.0,>80,3.0,F,Y,Y,Y,Y,Y,Y,Y,2013-10-23,2014-04-24,,1.0,1.0,1.0,1.0
01-710-1368,10.0,10.0,CDISCPILOT01,ADQSCIBC,710,710,1368,WEEK 16,WEEK 16,Wk16,113.0,113.0,112.0,16.0,2014-02-12,2014-02-12,,Y,CIBIC Score,CIBICVAL,5.0,Placebo,Pbo,0.0,0.0,88.0,>80,3.0,F,Y,Y,Y,Y,Y,Y,Y,2013-10-23,2014-04-24,,1.0,1.0,1.0,1.0
01-710-1368,12.0,12.0,CDISCPILOT01,ADQSCIBC,710,710,1368,WEEK 24,WEEK 24,Wk24,169.0,169.0,168.0,24.0,2014-04-09,2014-04-09,,Y,CIBIC Score,CIBICVAL,5.0,Placebo,Pbo,0.0,0.0,88.0,>80,3.0,F,Y,Y,Y,Y,Y,Y,Y,2013-10-23,2014-04-24,,1.0,1.0,1.0,1.0
01-710-1385,8.0,8.0,CDISCPILOT01,ADQSCIBC,710,710,1385,WEEK 8,WEEK 8,Wk8,58.0,58.0,56.0,8.0,2012-12-25,2012-12-25,,Y,CIBIC Score,CIBICVAL,3.0,Xanomeline Low Dose,Xan_Lo,1.0,54.0,77.0,65-80,2.0,M,Y,Y,Y,N,Y,Y,Y,2012-10-29,2013-02-18,,1.0,1.0,1.0,1.0
01-710-1385,10.0,10.0,CDISCPILOT01,ADQSCIBC,710,710,1385,WEEK 16,WEEK 16,Wk16,113.0,113.0,112.0,16.0,2013-02-18,2013-02-18,,Y,CIBIC Score,CIBICVAL,2.0,Xanomeline Low Dose,Xan_Lo,1.0,54.0,77.0,65-80,2.0,M,Y,Y,Y,N,Y,Y,Y,2012-10-29,2013-02-18,,1.0,1.0,1.0,1.0
01-710-1385,10.0,12.0,CDISCPILOT01,ADQSCIBC,710,710,1385,WEEK 24,WEEK 16,Wk24,113.0,113.0,112.0,24.0,2013-02-18,2013-02-18,LOCF,Y,CIBIC Score,CIBICVAL,2.0,Xanomeline Low Dose,Xan_Lo,1.0,54.0,77.0,65-80,2.0,M,Y,Y,Y,N,Y,Y,Y,2012-10-29,2013-02-18,Y,,,,1.0
01-710-1408,8.0,8.0,CDISCPILOT01,ADQSCIBC,710,710,1408,WEEK 8,WEEK 8,Wk8,62.0,62.0,56.0,8.0,2013-03-07,2013-03-07,,Y,CIBIC Score,CIBICVAL,4.0,Xanomeline High Dose,Xan_Hi,2.0,81.0,80.0,65-80,2.0,M,Y,Y,Y,Y,Y,Y,Y,2013-01-05,2013-07-12,,1.0,1.0,1.0,1.0
01-710-1408,10.0,10.0,CDISCPILOT01,ADQSCIBC,710,710,1408,WEEK 16,WEEK 16,Wk16,119.0,119.0,112.0,16.0,2013-05-03,2013-05-03,,Y,CIBIC Score,CIBICVAL,4.0,Xanomeline High Dose,Xan_Hi,2.0,81.0,80.0,65-80,2.0,M,Y,Y,Y,Y,Y,Y,Y,2013-01-05,2013-07-12,,1.0,1.0,1.0,1.0
01-710-1408,12.0,12.0,CDISCPILOT01,ADQSCIBC,710,710,1408,WEEK 24,WEEK 24,Wk24,175.0,175.0,168.0,24.0,2013-06-28,2013-06-28,,Y,CIBIC Score,CIBICVAL,4.0,Xanomeline High Dose,Xan_Hi,2.0,81.0,80.0,65-80,2.0,M,Y,Y,Y,Y,Y,Y,Y,2013-01-05,2013-07-12,,1.0,1.0,1.0,1.0
01-711-1012,5.0,,CDISCPILOT01,ADQSCIBC,711,900,1012,WEEK 4,WEEK 4,,30.0,30.0,28.0,,2013-05-02,2013-05-02,,N,CIBIC Score,CIBICVAL,4.0,Xanomeline High Dose,Xan_Hi,2.0,81.0,67.0,65-80,2.0,F,Y,Y,Y,N,N,N,N,2013-04-03,2013-04-29,,1.0,,,
01-711-1012,5.0,8.0,CDISCPILOT01,ADQSCIBC,711,900,1012,WEEK 8,WEEK 4,Wk8,30.0,30.0,28.0,8.0,2013-05-02,2013-05-02,,Y,CIBIC Score,CIBICVAL,4.0,Xanomeline High Dose,Xan_Hi,2.0,81.0,67.0,65-80,2.0,F,Y,Y,Y,N,N,N,N,2013-04-03,2013-04-29,Y,,,1.0,1.0
01-711-1012,5.0,10.0,CDISCPILOT01,ADQSCIBC,711,900,1012,WEEK 16,WEEK 4,Wk16,30.0,30.0,28.0,16.0,2013-05-02,2013-05-02,LOCF,Y,CIBIC Score,CIBICVAL,4.0,Xanomeline High Dose,Xan_Hi,2.0,81.0,67.0,65-80,2.0,F,Y,Y,Y,N,N,N,N,2013-04-03,2013-04-29,Y,,,,1.0
01-711-1012,201.0,201.0,CDISCPILOT01,ADQSCIBC,711,900,1012,RETRIEVAL,RETRIEVAL,Wk24,169.0,169.0,168.0,24.0,2013-09-18,2013-09-18,,Y,CIBIC Score,CIBICVAL,5.0,Xanomeline High Dose,Xan_Hi,2.0,81.0,67.0,65-80,2.0,F,Y,Y,Y,N,N,N,N,2013-04-03,2013-04-29,,1.0,1.0,1.0,1.0
01-711-1036,8.0,8.0,CDISCPILOT01,ADQSCIBC,711,900,1036,WEEK 8,WEEK 8,Wk8,57.0,57.0,56.0,8.0,2012-09-23,2012-09-23,,Y,CIBIC Score,CIBICVAL,4.0,Placebo,Pbo,0.0,0.0,70.0,65-80,2.0,M,Y,Y,Y,Y,Y,Y,Y,2012-07-29,2013-02-10,,1.0,1.0,1.0,1.0
01-711-1036,10.0,10.0,CDISCPILOT01,ADQSCIBC,711,900,1036,WEEK 16,WEEK 16,Wk16,112.0,112.0,112.0,16.0,2012-11-17,2012-11-17,,Y,CIBIC Score,CIBICVAL,5.0,Placebo,Pbo,0.0,0.0,70.0,65-80,2.0,M,Y,Y,Y,Y,Y,Y,Y,2012-07-29,2013-02-10,,1.0,1.0,1.0,1.0
01-711-1036,12.0,12.0,CDISCPILOT01,ADQSCIBC,711,900,1036,WEEK 24,WEEK 24,Wk24,169.0,169.0,168.0,24.0,2013-01-13,2013-01-13,,Y,CIBIC Score,CIBICVAL,5.0,Placebo,Pbo,0.0,0.0,70.0,65-80,2.0,M,Y,Y,Y,Y,Y,Y,Y,2012-07-29,2013-02-10,,1.0,1.0,1.0,1.0
01-711-1143,8.0,8.0,CDISCPILOT01,ADQSCIBC,711,900,1143,WEEK 8,WEEK 8,Wk8,56.0,56.0,56.0,8.0,2013-05-28,2013-05-28,,Y,CIBIC Score,CIBICVAL,3.0,Xanomeline Low Dose,Xan_Lo,1.0,54.0,76.0,65-80,2.0,F,Y,Y,Y,N,N,Y,Y,2013-04-03,2013-05-30,,1.0,1.0,1.0,1.0
01-711-1143,8.0,10.0,CDISCPILOT01,ADQSCIBC,711,900,1143,WEEK 16,WEEK 8,Wk16,56.0,56.0,56.0,16.0,2013-05-28,2013-05-28,LOCF,Y,CIBIC Score,CIBICVAL,3.0,Xanomeline Low Dose,Xan_Lo,1.0,54.0,76.0,65-80,2.0,F,Y,Y,Y,N,N,Y,Y,2013-04-03,2013-05-30,Y,,,,1.0
01-711-1143,9.0,,CDISCPILOT01,ADQSCIBC,711,900,1143,WEEK 12,WEEK 12,,60.0,60.0,84.0,,2013-06-01,2013-06-01,,N,CIBIC Score,CIBICVAL,3.0,Xanomeline Low Dose,Xan_Lo,1.0,54.0,76.0,65-80,2.0,F,Y,Y,Y,N,N,Y,N,2013-04-03,2013-05-30,,1.0,,,
01-711-1143,201.0,201.0,CDISCPILOT01,ADQSCIBC,711,900,1143,RETRIEVAL,RETRIEVAL,Wk24,173.0,173.0,168.0,24.0,2013-09-22,2013-09-22,,Y,CIBIC Score,CIBICVAL,4.0,Xanomeline Low Dose,Xan_Lo,1.0,54.0,76.0,65-80,2.0,F,Y,Y,Y,N,N,Y,N,2013-04-03,2013-05-30,,1.0,1.0,1.0,1.0
01-713-1043,8.0,8.0,CDISCPILOT01,ADQSCIBC,713,713,1043,WEEK 8,WEEK 8,Wk8,58.0,58.0,56.0,8.0,2013-11-11,2013-11-11,,Y,CIBIC Score,CIBICVAL,4.0,Xanomeline Low Dose,Xan_Lo,1.0,54.0,78.0,65-80,2.0,F,Y,Y,Y,Y,Y,Y,Y,2013-09-15,2014-03-24,,1.0,1.0,1.0,1.0
01-713-1043,10.0,10.0,CDISCPILOT01,ADQSCIBC,713,713,1043,WEEK 16,WEEK 16,Wk16,111.0,111.0,112.0,16.0,2014-01-03,2014-01-03,,Y,CIBIC Score,CIBICVAL,4.0,Xanomeline Low Dose,Xan_Lo,1.0,54.0,78.0,65-80,2.0,F,Y,Y,Y,Y,Y,Y,Y,2013-09-15,2014-03-24,,1.0,1.0,1.0,1.0
01-713-1043,12.0,12.0,CDISCPILOT01,ADQSCIBC,713,713,1043,WEEK 24,WEEK 24,Wk24,167.0,167.0,168.0,24.0,2014-02-28,2014-02-28,,Y,CIBIC Score,CIBICVAL,4.0,Xanomeline Low Dose,Xan_Lo,1.0,54.0,78.0,65-80,2.0,F,Y,Y,Y,Y,Y,Y,Y,2013-09-15,2014-03-24,,1.0,1.0,1.0,1.0
01-713-1073,8.0,8.0,CDISCPILOT01,ADQSCIBC,713,713,1073,WEEK 8,WEEK 8,Wk8,57.0,57.0,56.0,8.0,2014-05-25,2014-05-25,,Y,CIBIC Score,CIBICVAL,3.0,Xanomeline Low Dose,Xan_Lo,1.0,54.0,74.0,65-80,2.0,F,Y,Y,Y,Y,Y,Y,Y,2014-03-30,2014-10-05,,1.0,1.0,1.0,1.0
01-713-1073,10.0,10.0,CDISCPILOT01,ADQSCIBC,713,713,1073,WEEK 16,WEEK 16,Wk16,114.0,114.0,112.0,16.0,2014-07-21,2014-07-21,,Y,CIBIC Score,CIBICVAL,4.0,Xanomeline Low Dose,Xan_Lo,1.0,54.0,74.0,65-80,2.0,F,Y,Y,Y,Y,Y,Y,Y,2014-03-30,2014-10-05,,1.0,1.0,1.0,1.0
01-713-1073,12.0,12.0,CDISCPILOT01,ADQSCIBC,713,713,1073,WEEK 24,WEEK 24,Wk24,176.0,176.0,168.0,24.0,2014-09-21,2014-09-21,,Y,CIBIC Score,CIBICVAL,5.0,Xanomeline Low Dose,Xan_Lo,1.0,54.0,74.0,65-80,2.0,F,Y,Y,Y,Y,Y,Y,Y,2014-03-30,2014-10-05,,1.0,1.0,1.0,1.0
01-713-1106,8.0,8.0,CDISCPILOT01,ADQSCIBC,713,713,1106,WEEK 8,WEEK 8,Wk8,58.0,58.0,56.0,8.0,2012-12-27,2012-12-27,,Y,CIBIC Score,CIBICVAL,3.0,Xanomeline High Dose,Xan_Hi,2.0,81.0,74.0,65-80,2.0,M,Y,Y,Y,Y,Y,Y,Y,2012-10-31,2013-05-06,,1.0,1.0,1.0,1.0
01-713-1106,10.0,10.0,CDISCPILOT01,ADQSCIBC,713,713,1106,WEEK 16,WEEK 16,Wk16,120.0,120.0,112.0,16.0,2013-02-27,2013-02-27,,Y,CIBIC Score,CIBICVAL,3.0,Xanomeline High Dose,Xan_Hi,2.0,81.0,74.0,65-80,2.0,M,Y,Y,Y,Y,Y,Y,Y,2012-10-31,2013-05-06,,1.0,1.0,1.0,1.0
01-713-1106,12.0,12.0,CDISCPILOT01,ADQSCIBC,713,713,1106,WEEK 24,WEEK 24,Wk24,174.0,174.0,168.0,24.0,2013-04-22,2013-04-22,,Y,CIBIC Score,CIBICVAL,3.0,Xanomeline High Dose,Xan_Hi,2.0,81.0,74.0,65-80,2.0,M,Y,Y,Y,Y,Y,Y,Y,2012-10-31,2013-05-06,,1.0,1.0,1.0,1.0
01-713-1179,8.0,8.0,CDISCPILOT01,ADQSCIBC,713,713,1179,WEEK 8,WEEK 8,Wk8,57.0,57.0,56.0,8.0,2013-10-04,2013-10-04,,Y,CIBIC Score,CIBICVAL,4.0,Placebo,Pbo,0.0,0.0,64.0,<65,1.0,F,Y,Y,Y,Y,Y,Y,Y,2013-08-09,2014-02-05,,1.0,1.0,1.0,1.0
01-713-1179,10.0,10.0,CDISCPILOT01,ADQSCIBC,713,713,1179,WEEK 16,WEEK 16,Wk16,110.0,110.0,112.0,16.0,2013-11-26,2013-11-26,,Y,CIBIC Score,CIBICVAL,5.0,Placebo,Pbo,0.0,0.0,64.0,<65,1.0,F,Y,Y,Y,Y,Y,Y,Y,2013-08-09,2014-02-05,,1.0,1.0,1.0,1.0
01-713-1179,12.0,12.0,CDISCPILOT01,ADQSCIBC,713,713,1179,WEEK 24,WEEK 24,Wk24,169.0,169.0,168.0,24.0,2014-01-24,2014-01-24,,Y,CIBIC Score,CIBICVAL,2.0,Placebo,Pbo,0.0,0.0,64.0,<65,1.0,F,Y,Y,Y,Y,Y,Y,Y,2013-08-09,2014-02-05,,1.0,1.0,1.0,1.0
01-713-1209,8.0,8.0,CDISCPILOT01,ADQSCIBC,713,713,1209,WEEK 8,WEEK 8,Wk8,57.0,57.0,56.0,8.0,2013-07-22,2013-07-22,,Y,CIBIC Score,CIBICVAL,5.0,Xanomeline High Dose,Xan_Hi,2.0,81.0,77.0,65-80,2.0,F,Y,Y,Y,Y,Y,Y,Y,2013-05-27,2013-11-22,,1.0,1.0,1.0,1.0
01-713-1209,10.0,10.0,CDISCPILOT01,ADQSCIBC,713,713,1209,WEEK 16,WEEK 16,Wk16,112.0,112.0,112.0,16.0,2013-09-15,2013-09-15,,Y,CIBIC Score,CIBICVAL,5.0,Xanomeline High Dose,Xan_Hi,2.0,81.0,77.0,65-80,2.0,F,Y,Y,Y,Y,Y,Y,Y,2013-05-27,2013-11-22,,1.0,1.0,1.0,1.0
01-713-1209,12.0,12.0,CDISCPILOT01,ADQSCIBC,713,713,1209,WEEK 24,WEEK 24,Wk24,172.0,172.0,168.0,24.0,2013-11-14,2013-11-14,,Y,CIBIC Score,CIBICVAL,5.0,Xanomeline High Dose,Xan_Hi,2.0,81.0,77.0,65-80,2.0,F,Y,Y,Y,Y,Y,Y,Y,2013-05-27,2013-11-22,,1.0,1.0,1.0,1.0
01-713-1256,8.0,8.0,CDISCPILOT01,ADQSCIBC,713,713,1256,WEEK 8,WEEK 8,Wk8,57.0,57.0,56.0,8.0,2012-11-14,2012-11-14,,Y,CIBIC Score,CIBICVAL,4.0,Placebo,Pbo,0.0,0.0,71.0,65-80,2.0,M,Y,Y,Y,Y,Y,Y,Y,2012-09-19,2013-03-25,,1.0,1.0,1.0,1.0
01-713-1256,10.0,10.0,CDISCPILOT01,ADQSCIBC,713,713,1256,WEEK 16,WEEK 16,Wk16,112.0,112.0,112.0,16.0,2013-01-08,2013-01-08,,Y,CIBIC Score,CIBICVAL,5.0,Placebo,Pbo,0.0,0.0,71.0,65-80,2.0,M,Y,Y,Y,Y,Y,Y,Y,2012-09-19,2013-03-25,,1.0,1.0,1.0,1.0
01-713-1256,12.0,12.0,CDISCPILOT01,ADQSCIBC,713,713,1256,WEEK 24,WEEK 24,Wk24,172.0,172.0,168.0,24.0,2013-03-09,2013-03-09,,Y,CIBIC Score,CIBICVAL,6.0,Placebo,Pbo,0.0,0.0,71.0,65-80,2.0,M,Y,Y,Y,Y,Y,Y,Y,2012-09-19,2013-03-25,,1.0,1.0,1.0,1.0
01-713-1269,8.0,8.0,CDISCPILOT01,ADQSCIBC,713,713,1269,WEEK 8,WEEK 8,Wk8,56.0,56.0,56.0,8.0,2014-03-23,2014-03-23,,Y,CIBIC Score,CIBICVAL,4.0,Placebo,Pbo,0.0,0.0,73.0,65-80,2.0,M,Y,Y,Y,Y,Y,Y,Y,2014-01-27,2014-07-28,,1.0,1.0,1.0,1.0
01-713-1269,10.0,10.0,CDISCPILOT01,ADQSCIBC,713,713,1269,WEEK 16,WEEK 16,Wk16,113.0,113.0,112.0,16.0,2014-05-19,2014-05-19,,Y,CIBIC Score,CIBICVAL,5.0,Placebo,Pbo,0.0,0.0,73.0,65-80,2.0,M,Y,Y,Y,Y,Y,Y,Y,2014-01-27,2014-07-28,,1.0,1.0,1.0,1.0
01-713-1269,12.0,12.0,CDISCPILOT01,ADQSCIBC,713,713,1269,WEEK 24,WEEK 24,Wk24,168.0,168.0,168.0,24.0,2014-07-13,2014-07-13,,Y,CIBIC Score,CIBICVAL,5.0,Placebo,Pbo,0.0,0.0,73.0,65-80,2.0,M,Y,Y,Y,Y,Y,Y,Y,2014-01-27,2014-07-28,,1.0,1.0,1.0,1.0
01-713-1448,8.0,8.0,CDISCPILOT01,ADQSCIBC,713,713,1448,WEEK 8,WEEK 8,Wk8,58.0,58.0,56.0,8.0,2014-03-17,2014-03-17,,Y,CIBIC Score,CIBICVAL,4.0,Xanomeline Low Dose,Xan_Lo,1.0,54.0,71.0,65-80,2.0,F,Y,Y,Y,N,Y,Y,Y,2014-01-19,2014-05-16,,1.0,1.0,1.0,1.0
01-713-1448,10.0,10.0,CDISCPILOT01,ADQSCIBC,713,713,1448,WEEK 16,WEEK 16,Wk16,119.0,119.0,112.0,16.0,2014-05-17,2014-05-17,,Y,CIBIC Score,CIBICVAL,5.0,Xanomeline Low Dose,Xan_Lo,1.0,54.0,71.0,65-80,2.0,F,Y,Y,Y,N,Y,Y,N,2014-01-19,2014-05-16,,1.0,1.0,1.0,1.0
01-713-1448,10.0,12.0,CDISCPILOT01,ADQSCIBC,713,713,1448,WEEK 24,WEEK 16,Wk24,119.0,119.0,112.0,24.0,2014-05-17,2014-05-17,LOCF,Y,CIBIC Score,CIBICVAL,5.0,Xanomeline Low Dose,Xan_Lo,1.0,54.0,71.0,65-80,2.0,F,Y,Y,Y,N,Y,Y,N,2014-01-19,2014-05-16,Y,,,,1.0
01-714-1035,8.0,8.0,CDISCPILOT01,ADQSCIBC,714,900,1035,WEEK 8,WEEK 8,Wk8,62.0,62.0,56.0,8.0,2014-06-17,2014-06-17,,Y,CIBIC Score,CIBICVAL,4.0,Placebo,Pbo,0.0,0.0,88.0,>80,3.0,F,Y,Y,Y,Y,Y,Y,Y,2014-04-17,2014-10-16,,1.0,1.0,1.0,1.0
01-714-1035,10.0,10.0,CDISCPILOT01,ADQSCIBC,714,900,1035,WEEK 16,WEEK 16,Wk16,112.0,112.0,112.0,16.0,2014-08-06,2014-08-06,,Y,CIBIC Score,CIBICVAL,4.0,Placebo,Pbo,0.0,0.0,88.0,>80,3.0,F,Y,Y,Y,Y,Y,Y,Y,2014-04-17,2014-10-16,,1.0,1.0,1.0,1.0
01-714-1035,12.0,12.0,CDISCPILOT01,ADQSCIBC,714,900,1035,WEEK 24,WEEK 24,Wk24,169.0,169.0,168.0,24.0,2014-10-02,2014-10-02,,Y,CIBIC Score,CIBICVAL,4.0,Placebo,Pbo,0.0,0.0,88.0,>80,3.0,F,Y,Y,Y,Y,Y,Y,Y,2014-04-17,2014-10-16,,1.0,1.0,1.0,1.0
01-714-1068,8.0,8.0,CDISCPILOT01,ADQSCIBC,714,900,1068,WEEK 8,WEEK 8,Wk8,57.0,57.0,56.0,8.0,2013-10-03,2013-10-03,,Y,CIBIC Score,CIBICVAL,4.0,Xanomeline Low Dose,Xan_Lo,1.0,54.0,79.0,65-80,2.0,F,Y,Y,Y,N,N,Y,Y,2013-08-08,2013-10-08,,1.0,1.0,1.0,1.0
01-714-1068,8.0,10.0,CDISCPILOT01,ADQSCIBC,714,900,1068,WEEK 16,WEEK 8,Wk16,57.0,57.0,56.0,16.0,2013-10-03,2013-10-03,LOCF,Y,CIBIC Score,CIBICVAL,4.0,Xanomeline Low Dose,Xan_Lo,1.0,54.0,79.0,65-80,2.0,F,Y,Y,Y,N,N,Y,Y,2013-08-08,2013-10-08,Y,,,,1.0
01-714-1068,8.0,12.0,CDISCPILOT01,ADQSCIBC,714,900,1068,WEEK 24,WEEK 8,Wk24,57.0,57.0,56.0,24.0,2013-10-03,2013-10-03,LOCF,Y,CIBIC Score,CIBICVAL,4.0,Xanomeline Low Dose,Xan_Lo,1.0,54.0,79.0,65-80,2.0,F,Y,Y,Y,N,N,Y,Y,2013-08-08,2013-10-08,Y,,,,1.0
01-714-1068,9.0,,CDISCPILOT01,ADQSCIBC,714,900,1068,WEEK 12,WEEK 12,,70.0,70.0,84.0,,2013-10-16,2013-10-16,,N,CIBIC Score,CIBICVAL,4.0,Xanomeline Low Dose,Xan_Lo,1.0,54.0,79.0,65-80,2.0,F,Y,Y,Y,N,N,Y,N,2013-08-08,2013-10-08,,1.0,,,
01-714-1195,8.0,8.0,CDISCPILOT01,ADQSCIBC,714,900,1195,WEEK 8,WEEK 8,Wk8,56.0,56.0,56.0,8.0,2013-06-20,2013-06-20,,Y,CIBIC Score,CIBICVAL,3.0,Xanomeline Low Dose,Xan_Lo,1.0,54.0,75.0,65-80,2.0,M,Y,Y,Y,Y,Y,Y,Y,2013-04-26,2013-10-23,,1.0,1.0,1.0,1.0
01-714-1195,10.0,10.0,CDISCPILOT01,ADQSCIBC,714,900,1195,WEEK 16,WEEK 16,Wk16,106.0,106.0,112.0,16.0,2013-08-09,2013-08-09,,Y,CIBIC Score,CIBICVAL,2.0,Xanomeline Low Dose,Xan_Lo,1.0,54.0,75.0,65-80,2.0,M,Y,Y,Y,Y,Y,Y,Y,2013-04-26,2013-10-23,,1.0,1.0,1.0,1.0
01-714-1195,12.0,12.0,CDISCPILOT01,ADQSCIBC,714,900,1195,WEEK 24,WEEK 24,Wk24,168.0,168.0,168.0,24.0,2013-10-10,2013-10-10,,Y,CIBIC Score,CIBICVAL,3.0,Xanomeline Low Dose,Xan_Lo,1.0,54.0,75.0,65-80,2.0,M,Y,Y,Y,Y,Y,Y,Y,2013-04-26,2013-10-23,,1.0,1.0,1.0,1.0
01-714-1288,8.0,8.0,CDISCPILOT01,ADQSCIBC,714,900,1288,WEEK 8,WEEK 8,Wk8,61.0,61.0,56.0,8.0,2014-02-02,2014-02-02,,Y,CIBIC Score,CIBICVAL,3.0,Xanomeline High Dose,Xan_Hi,2.0,81.0,77.0,65-80,2.0,M,Y,Y,Y,Y,Y,Y,Y,2013-12-04,2014-06-17,,1.0,1.0,1.0,1.0
01-714-1288,10.0,10.0,CDISCPILOT01,ADQSCIBC,714,900,1288,WEEK 16,WEEK 16,Wk16,119.0,119.0,112.0,16.0,2014-04-01,2014-04-01,,Y,CIBIC Score,CIBICVAL,4.0,Xanomeline High Dose,Xan_Hi,2.0,81.0,77.0,65-80,2.0,M,Y,Y,Y,Y,Y,Y,Y,2013-12-04,2014-06-17,,1.0,1.0,1.0,1.0
01-714-1288,12.0,12.0,CDISCPILOT01,ADQSCIBC,714,900,1288,WEEK 24,WEEK 24,Wk24,175.0,175.0,168.0,24.0,2014-05-27,2014-05-27,,Y,CIBIC Score,CIBICVAL,3.0,Xanomeline High Dose,Xan_Hi,2.0,81.0,77.0,65-80,2.0,M,Y,Y,Y,Y,Y,Y,Y,2013-12-04,2014-06-17,,1.0,1.0,1.0,1.0
01-714-1375,8.0,8.0,CDISCPILOT01,ADQSCIBC,714,900,1375,WEEK 8,WEEK 8,Wk8,60.0,60.0,56.0,8.0,2013-04-26,2013-04-26,,Y,CIBIC Score,CIBICVAL,4.0,Placebo,Pbo,0.0,0.0,78.0,65-80,2.0,F,Y,Y,Y,Y,Y,Y,Y,2013-02-26,2013-09-07,,1.0,1.0,1.0,1.0
01-714-1375,10.0,10.0,CDISCPILOT01,ADQSCIBC,714,900,1375,WEEK 16,WEEK 16,Wk16,117.0,117.0,112.0,16.0,2013-06-22,2013-06-22,,Y,CIBIC Score,CIBICVAL,4.0,Placebo,Pbo,0.0,0.0,78.0,65-80,2.0,F,Y,Y,Y,Y,Y,Y,Y,2013-02-26,2013-09-07,,1.0,1.0,1.0,1.0
01-714-1375,12.0,12.0,CDISCPILOT01,ADQSCIBC,714,900,1375,WEEK 24,WEEK 24,Wk24,179.0,179.0,168.0,24.0,2013-08-23,2013-08-23,,Y,CIBIC Score,CIBICVAL,3.0,Placebo,Pbo,0.0,0.0,78.0,65-80,2.0,F,Y,Y,Y,Y,Y,Y,Y,2013-02-26,2013-09-07,,1.0,1.0,1.0,1.0
01-714-1425,4.0,,CDISCPILOT01,ADQSCIBC,714,900,1425,WEEK 2,WEEK 2,,8.0,8.0,14.0,,2013-08-22,2013-08-22,,N,CIBIC Score,CIBICVAL,4.0,Xanomeline High Dose,Xan_Hi,2.0,81.0,81.0,>80,3.0,M,Y,Y,Y,N,N,N,N,2013-08-15,2013-08-19,,1.0,,,
01-714-1425,4.0,8.0,CDISCPILOT01,ADQSCIBC,714,900,1425,WEEK 8,WEEK 2,Wk8,8.0,8.0,14.0,8.0,2013-08-22,2013-08-22,,Y,CIBIC Score,CIBICVAL,4.0,Xanomeline High Dose,Xan_Hi,2.0,81.0,81.0,>80,3.0,M,Y,Y,Y,N,N,N,N,2013-08-15,2013-08-19,Y,,,1.0,1.0
01-714-1425,4.0,10.0,CDISCPILOT01,ADQSCIBC,714,900,1425,WEEK 16,WEEK 2,Wk16,8.0,8.0,14.0,16.0,2013-08-22,2013-08-22,LOCF,Y,CIBIC Score,CIBICVAL,4.0,Xanomeline High Dose,Xan_Hi,2.0,81.0,81.0,>80,3.0,M,Y,Y,Y,N,N,N,N,2013-08-15,2013-08-19,Y,,,,1.0
01-714-1425,4.0,12.0,CDISCPILOT01,ADQSCIBC,714,900,1425,WEEK 24,WEEK 2,Wk24,8.0,8.0,14.0,24.0,2013-08-22,2013-08-22,LOCF,Y,CIBIC Score,CIBICVAL,4.0,Xanomeline High Dose,Xan_Hi,2.0,81.0,81.0,>80,3.0,M,Y,Y,Y,N,N,N,N,2013-08-15,2013-08-19,Y,,,,1.0
01-715-1085,8.0,8.0,CDISCPILOT01,ADQSCIBC,715,900,1085,WEEK 8,WEEK 8,Wk8,58.0,58.0,56.0,8.0,2013-04-14,2013-04-14,,Y,CIBIC Score,CIBICVAL,4.0,Xanomeline Low Dose,Xan_Lo,1.0,54.0,77.0,65-80,2.0,F,Y,Y,Y,Y,Y,Y,Y,2013-02-16,2013-08-18,,1.0,1.0,1.0,1.0
01-715-1085,10.0,10.0,CDISCPILOT01,ADQSCIBC,715,900,1085,WEEK 16,WEEK 16,Wk16,114.0,114.0,112.0,16.0,2013-06-09,2013-06-09,,Y,CIBIC Score,CIBICVAL,4.0,Xanomeline Low Dose,Xan_Lo,1.0,54.0,77.0,65-80,2.0,F,Y,Y,Y,Y,Y,Y,Y,2013-02-16,2013-08-18,,1.0,1.0,1.0,1.0
01-715-1085,12.0,12.0,CDISCPILOT01,ADQSCIBC,715,900,1085,WEEK 24,WEEK 24,Wk24,170.0,170.0,168.0,24.0,2013-08-04,2013-08-04,,Y,CIBIC Score,CIBICVAL,4.0,Xanomeline Low Dose,Xan_Lo,1.0,54.0,77.0,65-80,2.0,F,Y,Y,Y,Y,Y,Y,Y,2013-02-16,2013-08-18,,1.0,1.0,1.0,1.0
01-715-1107,8.0,8.0,CDISCPILOT01,ADQSCIBC,715,900,1107,WEEK 8,WEEK 8,Wk8,57.0,57.0,56.0,8.0,2013-04-23,2013-04-23,,Y,CIBIC Score,CIBICVAL,4.0,Xanomeline Low Dose,Xan_Lo,1.0,54.0,65.0,65-80,2.0,M,Y,Y,Y,N,N,Y,Y,2013-02-26,2013-05-07,,1.0,1.0,1.0,1.0
01-715-1107,8.0,10.0,CDISCPILOT01,ADQSCIBC,715,900,1107,WEEK 16,WEEK 8,Wk16,57.0,57.0,56.0,16.0,2013-04-23,2013-04-23,LOCF,Y,CIBIC Score,CIBICVAL,4.0,Xanomeline Low Dose,Xan_Lo,1.0,54.0,65.0,65-80,2.0,M,Y,Y,Y,N,N,Y,Y,2013-02-26,2013-05-07,Y,,,,1.0
01-715-1107,9.0,,CDISCPILOT01,ADQSCIBC,715,900,1107,WEEK 12,WEEK 12,,77.0,77.0,84.0,,2013-05-13,2013-05-13,,N,CIBIC Score,CIBICVAL,4.0,Xanomeline Low Dose,Xan_Lo,1.0,54.0,65.0,65-80,2.0,M,Y,Y,Y,N,N,Y,N,2013-02-26,2013-05-07,,1.0,,,
01-715-1107,201.0,201.0,CDISCPILOT01,ADQSCIBC,715,900,1107,RETRIEVAL,RETRIEVAL,Wk24,170.0,170.0,168.0,24.0,2013-08-14,2013-08-14,,Y,CIBIC Score,CIBICVAL,5.0,Xanomeline Low Dose,Xan_Lo,1.0,54.0,65.0,65-80,2.0,M,Y,Y,Y,N,N,Y,N,2013-02-26,2013-05-07,,1.0,1.0,1.0,1.0
01-715-1207,8.0,8.0,CDISCPILOT01,ADQSCIBC,715,900,1207,WEEK 8,WEEK 8,Wk8,57.0,57.0,56.0,8.0,2013-01-13,2013-01-13,,Y,CIBIC Score,CIBICVAL,3.0,Placebo,Pbo,0.0,0.0,78.0,65-80,2.0,F,Y,Y,Y,Y,Y,Y,Y,2012-11-18,2013-05-27,,1.0,1.0,1.0,1.0
01-715-1207,10.0,10.0,CDISCPILOT01,ADQSCIBC,715,900,1207,WEEK 16,WEEK 16,Wk16,113.0,113.0,112.0,16.0,2013-03-10,2013-03-10,,Y,CIBIC Score,CIBICVAL,4.0,Placebo,Pbo,0.0,0.0,78.0,65-80,2.0,F,Y,Y,Y,Y,Y,Y,Y,2012-11-18,2013-05-27,,1.0,1.0,1.0,1.0
01-715-1207,12.0,12.0,CDISCPILOT01,ADQSCIBC,715,900,1207,WEEK 24,WEEK 24,Wk24,169.0,169.0,168.0,24.0,2013-05-05,2013-05-05,,Y,CIBIC Score,CIBICVAL,4.0,Placebo,Pbo,0.0,0.0,78.0,65-80,2.0,F,Y,Y,Y,Y,Y,Y,Y,2012-11-18,2013-05-27,,1.0,1.0,1.0,1.0
01-715-1319,5.0,,CDISCPILOT01,ADQSCIBC,715,900,1319,WEEK 4,WEEK 4,,30.0,30.0,28.0,,2013-03-18,2013-03-18,,N,CIBIC Score,CIBICVAL,5.0,Xanomeline High Dose,Xan_Hi,2.0,81.0,65.0,65-80,2.0,M,Y,Y,Y,N,N,N,N,2013-02-17,2013-03-05,,1.0,,,
01-715-1319,5.0,8.0,CDISCPILOT01,ADQSCIBC,715,900,1319,WEEK 8,WEEK 4,Wk8,30.0,30.0,28.0,8.0,2013-03-18,2013-03-18,,Y,CIBIC Score,CIBICVAL,5.0,Xanomeline High Dose,Xan_Hi,2.0,81.0,65.0,65-80,2.0,M,Y,Y,Y,N,N,N,N,2013-02-17,2013-03-05,Y,,,1.0,1.0
01-715-1319,5.0,10.0,CDISCPILOT01,ADQSCIBC,715,900,1319,WEEK 16,WEEK 4,Wk16,30.0,30.0,28.0,16.0,2013-03-18,2013-03-18,LOCF,Y,CIBIC Score,CIBICVAL,5.0,Xanomeline High Dose,Xan_Hi,2.0,81.0,65.0,65-80,2.0,M,Y,Y,Y,N,N,N,N,2013-02-17,2013-03-05,Y,,,,1.0
01-715-1319,5.0,12.0,CDISCPILOT01,ADQSCIBC,715,900,1319,WEEK 24,WEEK 4,Wk24,30.0,30.0,28.0,24.0,2013-03-18,2013-03-18,LOCF,Y,CIBIC Score,CIBICVAL,5.0,Xanomeline High Dose,Xan_Hi,2.0,81.0,65.0,65-80,2.0,M,Y,Y,Y,N,N,N,N,2013-02-17,2013-03-05,Y,,,,1.0
01-715-1321,8.0,8.0,CDISCPILOT01,ADQSCIBC,715,900,1321,WEEK 8,WEEK 8,Wk8,58.0,58.0,56.0,8.0,2014-04-09,2014-04-09,,Y,CIBIC Score,CIBICVAL,3.0,Xanomeline High Dose,Xan_Hi,2.0,81.0,75.0,65-80,2.0,F,Y,Y,Y,N,N,Y,Y,2014-02-11,2014-04-21,,1.0,1.0,1.0,1.0
01-715-1321,8.0,10.0,CDISCPILOT01,ADQSCIBC,715,900,1321,WEEK 16,WEEK 8,Wk16,58.0,58.0,56.0,16.0,2014-04-09,2014-04-09,LOCF,Y,CIBIC Score,CIBICVAL,3.0,Xanomeline High Dose,Xan_Hi,2.0,81.0,75.0,65-80,2.0,F,Y,Y,Y,N,N,Y,Y,2014-02-11,2014-04-21,Y,,,,1.0
01-715-1321,8.0,12.0,CDISCPILOT01,ADQSCIBC,715,900,1321,WEEK 24,WEEK 8,Wk24,58.0,58.0,56.0,24.0,2014-04-09,2014-04-09,LOCF,Y,CIBIC Score,CIBICVAL,3.0,Xanomeline High Dose,Xan_Hi,2.0,81.0,75.0,65-80,2.0,F,Y,Y,Y,N,N,Y,Y,2014-02-11,2014-04-21,Y,,,,1.0
01-715-1321,9.0,,CDISCPILOT01,ADQSCIBC,715,900,1321,WEEK 12,WEEK 12,,71.0,71.0,84.0,,2014-04-22,2014-04-22,,N,CIBIC Score,CIBICVAL,5.0,Xanomeline High Dose,Xan_Hi,2.0,81.0,75.0,65-80,2.0,F,Y,Y,Y,N,N,Y,N,2014-02-11,2014-04-21,,1.0,,,
01-715-1397,8.0,8.0,CDISCPILOT01,ADQSCIBC,715,900,1397,WEEK 8,WEEK 8,Wk8,57.0,57.0,56.0,8.0,2013-05-29,2013-05-29,,Y,CIBIC Score,CIBICVAL,4.0,Placebo,Pbo,0.0,0.0,76.0,65-80,2.0,F,Y,Y,Y,Y,Y,Y,Y,2013-04-03,2013-10-02,,1.0,1.0,1.0,1.0
01-715-1397,10.0,10.0,CDISCPILOT01,ADQSCIBC,715,900,1397,WEEK 16,WEEK 16,Wk16,113.0,113.0,112.0,16.0,2013-07-24,2013-07-24,,Y,CIBIC Score,CIBICVAL,4.0,Placebo,Pbo,0.0,0.0,76.0,65-80,2.0,F,Y,Y,Y,Y,Y,Y,Y,2013-04-03,2013-10-02,,1.0,1.0,1.0,1.0
01-715-1397,12.0,12.0,CDISCPILOT01,ADQSCIBC,715,900,1397,WEEK 24,WEEK 24,Wk24,169.0,169.0,168.0,24.0,2013-09-18,2013-09-18,,Y,CIBIC Score,CIBICVAL,4.0,Placebo,Pbo,0.0,0.0,76.0,65-80,2.0,F,Y,Y,Y,Y,Y,Y,Y,2013-04-03,2013-10-02,,1.0,1.0,1.0,1.0
01-715-1405,4.0,,CDISCPILOT01,ADQSCIBC,715,900,1405,WEEK 2,WEEK 2,,8.0,8.0,14.0,,2013-07-13,2013-07-13,,N,CIBIC Score,CIBICVAL,4.0,Xanomeline Low Dose,Xan_Lo,1.0,54.0,69.0,65-80,2.0,M,Y,Y,Y,N,N,N,N,2013-07-06,2013-07-07,,1.0,,,
01-715-1405,4.0,8.0,CDISCPILOT01,ADQSCIBC,715,900,1405,WEEK 8,WEEK 2,Wk8,8.0,8.0,14.0,8.0,2013-07-13,2013-07-13,,Y,CIBIC Score,CIBICVAL,4.0,Xanomeline Low Dose,Xan_Lo,1.0,54.0,69.0,65-80,2.0,M,Y,Y,Y,N,N,N,N,2013-07-06,2013-07-07,Y,,,1.0,1.0
01-715-1405,4.0,10.0,CDISCPILOT01,ADQSCIBC,715,900,1405,WEEK 16,WEEK 2,Wk16,8.0,8.0,14.0,16.0,2013-07-13,2013-07-13,LOCF,Y,CIBIC Score,CIBICVAL,4.0,Xanomeline Low Dose,Xan_Lo,1.0,54.0,69.0,65-80,2.0,M,Y,Y,Y,N,N,N,N,2013-07-06,2013-07-07,Y,,,,1.0
01-715-1405,201.0,201.0,CDISCPILOT01,ADQSCIBC,715,900,1405,RETRIEVAL,RETRIEVAL,Wk24,190.0,190.0,168.0,24.0,2014-01-11,2014-01-11,,Y,CIBIC Score,CIBICVAL,5.0,Xanomeline Low Dose,Xan_Lo,1.0,54.0,69.0,65-80,2.0,M,Y,Y,Y,N,N,N,N,2013-07-06,2013-07-07,,1.0,1.0,1.0,1.0
01-716-1024,8.0,8.0,CDISCPILOT01,ADQSCIBC,716,716,1024,WEEK 8,WEEK 8,Wk8,57.0,57.0,56.0,8.0,2012-09-03,2012-09-03,,Y,CIBIC Score,CIBICVAL,4.0,Placebo,Pbo,0.0,0.0,87.0,>80,3.0,F,Y,Y,Y,Y,Y,Y,Y,2012-07-09,2013-01-20,,1.0,1.0,1.0,1.0
01-716-1024,10.0,10.0,CDISCPILOT01,ADQSCIBC,716,716,1024,WEEK 16,WEEK 16,Wk16,116.0,116.0,112.0,16.0,2012-11-01,2012-11-01,,Y,CIBIC Score,CIBICVAL,4.0,Placebo,Pbo,0.0,0.0,87.0,>80,3.0,F,Y,Y,Y,Y,Y,Y,Y,2012-07-09,2013-01-20,,1.0,1.0,1.0,1.0
01-716-1024,12.0,12.0,CDISCPILOT01,ADQSCIBC,716,716,1024,WEEK 24,WEEK 24,Wk24,175.0,175.0,168.0,24.0,2012-12-30,2012-12-30,,Y,CIBIC Score,CIBICVAL,4.0,Placebo,Pbo,0.0,0.0,87.0,>80,3.0,F,Y,Y,Y,Y,Y,Y,Y,2012-07-09,2013-01-20,,1.0,1.0,1.0,1.0
01-716-1026,8.0,8.0,CDISCPILOT01,ADQSCIBC,716,716,1026,WEEK 8,WEEK 8,Wk8,58.0,58.0,56.0,8.0,2014-05-29,2014-05-29,,Y,CIBIC Score,CIBICVAL,3.0,Placebo,Pbo,0.0,0.0,73.0,65-80,2.0,F,Y,Y,Y,Y,Y,Y,Y,2014-04-02,2014-10-16,,1.0,1.0,1.0,1.0
01-716-1026,10.0,10.0,CDISCPILOT01,ADQSCIBC,716,716,1026,WEEK 16,WEEK 16,Wk16,121.0,121.0,112.0,16.0,2014-07-31,2014-07-31,,Y,CIBIC Score,CIBICVAL,5.0,Placebo,Pbo,0.0,0.0,73.0,65-80,2.0,F,Y,Y,Y,Y,Y,Y,Y,2014-04-02,2014-10-16,,1.0,1.0,1.0,1.0
01-716-1026,12.0,12.0,CDISCPILOT01,ADQSCIBC,716,716,1026,WEEK 24,WEEK 24,Wk24,179.0,179.0,168.0,24.0,2014-09-27,2014-09-27,,Y,CIBIC Score,CIBICVAL,4.0,Placebo,Pbo,0.0,0.0,73.0,65-80,2.0,F,Y,Y,Y,Y,Y,Y,Y,2014-04-02,2014-10-16,,1.0,1.0,1.0,1.0
01-716-1030,4.0,,CDISCPILOT01,ADQSCIBC,716,716,1030,WEEK 2,WEEK 2,,14.0,14.0,14.0,,2014-01-10,2014-01-10,,N,CIBIC Score,CIBICVAL,4.0,Xanomeline High Dose,Xan_Hi,2.0,81.0,83.0,>80,3.0,F,Y,Y,Y,N,N,N,N,2013-12-28,2014-01-02,,1.0,,,
01-716-1030,4.0,8.0,CDISCPILOT01,ADQSCIBC,716,716,1030,WEEK 8,WEEK 2,Wk8,14.0,14.0,14.0,8.0,2014-01-10,2014-01-10,,Y,CIBIC Score,CIBICVAL,4.0,Xanomeline High Dose,Xan_Hi,2.0,81.0,83.0,>80,3.0,F,Y,Y,Y,N,N,N,N,2013-12-28,2014-01-02,Y,,,1.0,1.0
01-716-1030,4.0,10.0,CDISCPILOT01,ADQSCIBC,716,716,1030,WEEK 16,WEEK 2,Wk16,14.0,14.0,14.0,16.0,2014-01-10,2014-01-10,LOCF,Y,CIBIC Score,CIBICVAL,4.0,Xanomeline High Dose,Xan_Hi,2.0,81.0,83.0,>80,3.0,F,Y,Y,Y,N,N,N,N,2013-12-28,2014-01-02,Y,,,,1.0
01-716-1030,4.0,12.0,CDISCPILOT01,ADQSCIBC,716,716,1030,WEEK 24,WEEK 2,Wk24,14.0,14.0,14.0,24.0,2014-01-10,2014-01-10,LOCF,Y,CIBIC Score,CIBICVAL,4.0,Xanomeline High Dose,Xan_Hi,2.0,81.0,83.0,>80,3.0,F,Y,Y,Y,N,N,N,N,2013-12-28,2014-01-02,Y,,,,1.0
01-716-1044,8.0,8.0,CDISCPILOT01,ADQSCIBC,716,716,1044,WEEK 8,WEEK 8,Wk8,63.0,63.0,56.0,8.0,2013-06-28,2013-06-28,,Y,CIBIC Score,CIBICVAL,2.0,Placebo,Pbo,0.0,0.0,74.0,65-80,2.0,M,Y,Y,Y,Y,Y,Y,Y,2013-04-27,2013-11-03,,1.0,1.0,1.0,1.0
01-716-1044,10.0,10.0,CDISCPILOT01,ADQSCIBC,716,716,1044,WEEK 16,WEEK 16,Wk16,112.0,112.0,112.0,16.0,2013-08-16,2013-08-16,,Y,CIBIC Score,CIBICVAL,3.0,Placebo,Pbo,0.0,0.0,74.0,65-80,2.0,M,Y,Y,Y,Y,Y,Y,Y,2013-04-27,2013-11-03,,1.0,1.0,1.0,1.0
01-716-1044,12.0,12.0,CDISCPILOT01,ADQSCIBC,716,716,1044,WEEK 24,WEEK 24,Wk24,173.0,173.0,168.0,24.0,2013-10-16,2013-10-16,,Y,CIBIC Score,CIBICVAL,5.0,Placebo,Pbo,0.0,0.0,74.0,65-80,2.0,M,Y,Y,Y,Y,Y,Y,Y,2013-04-27,2013-11-03,,1.0,1.0,1.0,1.0
01-716-1063,8.0,8.0,CDISCPILOT01,ADQSCIBC,716,716,1063,WEEK 8,WEEK 8,Wk8,57.0,57.0,56.0,8.0,2013-07-04,2013-07-04,,Y,CIBIC Score,CIBICVAL,5.0,Xanomeline Low Dose,Xan_Lo,1.0,54.0,80.0,65-80,2.0,M,Y,Y,Y,N,Y,Y,Y,2013-05-09,2013-08-25,,1.0,1.0,1.0,1.0
01-716-1063,10.0,10.0,CDISCPILOT01,ADQSCIBC,716,716,1063,WEEK 16,WEEK 16,Wk16,112.0,112.0,112.0,16.0,2013-08-28,2013-08-28,,Y,CIBIC Score,CIBICVAL,4.0,Xanomeline Low Dose,Xan_Lo,1.0,54.0,80.0,65-80,2.0,M,Y,Y,Y,N,Y,Y,N,2013-05-09,2013-08-25,,1.0,1.0,1.0,1.0
01-716-1063,201.0,201.0,CDISCPILOT01,ADQSCIBC,716,716,1063,RETRIEVAL,RETRIEVAL,Wk24,193.0,193.0,168.0,24.0,2013-11-17,2013-11-17,,Y,CIBIC Score,CIBICVAL,6.0,Xanomeline Low Dose,Xan_Lo,1.0,54.0,80.0,65-80,2.0,M,Y,Y,Y,N,Y,Y,N,2013-05-09,2013-08-25,,1.0,1.0,1.0,1.0
01-716-1071,8.0,8.0,CDISCPILOT01,ADQSCIBC,716,716,1071,WEEK 8,WEEK 8,Wk8,55.0,55.0,56.0,8.0,2013-08-01,2013-08-01,,Y,CIBIC Score,CIBICVAL,4.0,Xanomeline High Dose,Xan_Hi,2.0,81.0,78.0,65-80,2.0,F,Y,Y,Y,N,N,Y,Y,2013-06-08,2013-08-01,,1.0,1.0,1.0,1.0
01-716-1071,8.0,10.0,CDISCPILOT01,ADQSCIBC,716,716,1071,WEEK 16,WEEK 8,Wk16,55.0,55.0,56.0,16.0,2013-08-01,2013-08-01,LOCF,Y,CIBIC Score,CIBICVAL,4.0,Xanomeline High Dose,Xan_Hi,2.0,81.0,78.0,65-80,2.0,F,Y,Y,Y,N,N,Y,Y,2013-06-08,2013-08-01,Y,,,,1.0
01-716-1071,201.0,201.0,CDISCPILOT01,ADQSCIBC,716,716,1071,RETRIEVAL,RETRIEVAL,Wk24,192.0,192.0,168.0,24.0,2013-12-16,2013-12-16,,Y,CIBIC Score,CIBICVAL,4.0,Xanomeline High Dose,Xan_Hi,2.0,81.0,78.0,65-80,2.0,F,Y,Y,Y,N,N,Y,N,2013-06-08,2013-08-01,,1.0,1.0,1.0,1.0
01-716-1094,7.0,,CDISCPILOT01,ADQSCIBC,716,716,1094,WEEK 6,WEEK 6,,39.0,39.0,42.0,,2013-01-26,2013-01-26,,N,CIBIC Score,CIBICVAL,2.0,Xanomeline Low Dose,Xan_Lo,1.0,54.0,82.0,>80,3.0,M,Y,Y,Y,N,N,N,N,2012-12-19,2013-01-24,,1.0,,,
01-716-1094,7.0,8.0,CDISCPILOT01,ADQSCIBC,716,716,1094,WEEK 8,WEEK 6,Wk8,39.0,39.0,42.0,8.0,2013-01-26,2013-01-26,,Y,CIBIC Score,CIBICVAL,2.0,Xanomeline Low Dose,Xan_Lo,1.0,54.0,82.0,>80,3.0,M,Y,Y,Y,N,N,N,N,2012-12-19,2013-01-24,Y,,,1.0,1.0
01-716-1094,7.0,10.0,CDISCPILOT01,ADQSCIBC,716,716,1094,WEEK 16,WEEK 6,Wk16,39.0,39.0,42.0,16.0,2013-01-26,2013-01-26,LOCF,Y,CIBIC Score,CIBICVAL,2.0,Xanomeline Low Dose,Xan_Lo,1.0,54.0,82.0,>80,3.0,M,Y,Y,Y,N,N,N,N,2012-12-19,2013-01-24,Y,,,,1.0
01-716-1094,201.0,201.0,CDISCPILOT01,ADQSCIBC,716,716,1094,RETRIEVAL,RETRIEVAL,Wk24,186.0,186.0,168.0,24.0,2013-06-22,2013-06-22,,Y,CIBIC Score,CIBICVAL,4.0,Xanomeline Low Dose,Xan_Lo,1.0,54.0,82.0,>80,3.0,M,Y,Y,Y,N,N,N,N,2012-12-19,2013-01-24,,1.0,1.0,1.0,1.0
01-716-1103,8.0,8.0,CDISCPILOT01,ADQSCIBC,716,716,1103,WEEK 8,WEEK 8,Wk8,64.0,64.0,56.0,8.0,2014-05-22,2014-05-22,,Y,CIBIC Score,CIBICVAL,3.0,Xanomeline Low Dose,Xan_Lo,1.0,54.0,79.0,65-80,2.0,M,Y,Y,Y,Y,Y,Y,Y,2014-03-20,2014-09-20,,1.0,1.0,1.0,1.0
01-716-1103,10.0,10.0,CDISCPILOT01,ADQSCIBC,716,716,1103,WEEK 16,WEEK 16,Wk16,126.0,126.0,112.0,16.0,2014-07-23,2014-07-23,,Y,CIBIC Score,CIBICVAL,3.0,Xanomeline Low Dose,Xan_Lo,1.0,54.0,79.0,65-80,2.0,M,Y,Y,Y,Y,Y,Y,Y,2014-03-20,2014-09-20,,1.0,1.0,1.0,1.0
01-716-1103,12.0,12.0,CDISCPILOT01,ADQSCIBC,716,716,1103,WEEK 24,WEEK 24,Wk24,164.0,164.0,168.0,24.0,2014-08-30,2014-08-30,,Y,CIBIC Score,CIBICVAL,3.0,Xanomeline Low Dose,Xan_Lo,1.0,54.0,79.0,65-80,2.0,M,Y,Y,Y,Y,Y,Y,Y,2014-03-20,2014-09-20,,1.0,1.0,1.0,1.0
01-716-1108,8.0,8.0,CDISCPILOT01,ADQSCIBC,716,716,1108,WEEK 8,WEEK 8,Wk8,60.0,60.0,56.0,8.0,2013-04-12,2013-04-12,,Y,CIBIC Score,CIBICVAL,4.0,Placebo,Pbo,0.0,0.0,86.0,>80,3.0,F,Y,Y,Y,Y,Y,Y,Y,2013-02-12,2013-08-10,,1.0,1.0,1.0,1.0
01-716-1108,10.0,10.0,CDISCPILOT01,ADQSCIBC,716,716,1108,WEEK 16,WEEK 16,Wk16,116.0,116.0,112.0,16.0,2013-06-07,2013-06-07,,Y,CIBIC Score,CIBICVAL,4.0,Placebo,Pbo,0.0,0.0,86.0,>80,3.0,F,Y,Y,Y,Y,Y,Y,Y,2013-02-12,2013-08-10,,1.0,1.0,1.0,1.0
01-716-1108,12.0,12.0,CDISCPILOT01,ADQSCIBC,716,716,1108,WEEK 24,WEEK 24,Wk24,172.0,172.0,168.0,24.0,2013-08-02,2013-08-02,,Y,CIBIC Score,CIBICVAL,4.0,Placebo,Pbo,0.0,0.0,86.0,>80,3.0,F,Y,Y,Y,Y,Y,Y,Y,2013-02-12,2013-08-10,,1.0,1.0,1.0,1.0
01-716-1151,8.0,8.0,CDISCPILOT01,ADQSCIBC,716,716,1151,WEEK 8,WEEK 8,Wk8,61.0,61.0,56.0,8.0,2013-04-02,2013-04-02,,Y,CIBIC Score,CIBICVAL,4.0,Xanomeline Low Dose,Xan_Lo,1.0,54.0,83.0,>80,3.0,F,Y,Y,Y,N,Y,Y,Y,2013-02-01,2013-05-11,,1.0,1.0,1.0,1.0
01-716-1151,10.0,10.0,CDISCPILOT01,ADQSCIBC,716,716,1151,WEEK 16,WEEK 16,Wk16,127.0,127.0,112.0,16.0,2013-06-07,2013-06-07,,Y,CIBIC Score,CIBICVAL,3.0,Xanomeline Low Dose,Xan_Lo,1.0,54.0,83.0,>80,3.0,F,Y,Y,Y,N,Y,Y,N,2013-02-01,2013-05-11,,1.0,1.0,1.0,1.0
01-716-1151,201.0,201.0,CDISCPILOT01,ADQSCIBC,716,716,1151,RETRIEVAL,RETRIEVAL,Wk24,194.0,194.0,168.0,24.0,2013-08-13,2013-08-13,,Y,CIBIC Score,CIBICVAL,5.0,Xanomeline Low Dose,Xan_Lo,1.0,54.0,83.0,>80,3.0,F,Y,Y,Y,N,Y,Y,N,2013-02-01,2013-05-11,,1.0,1.0,1.0,1.0
01-716-1157,8.0,8.0,CDISCPILOT01,ADQSCIBC,716,716,1157,WEEK 8,WEEK 8,Wk8,56.0,56.0,56.0,8.0,2013-11-26,2013-11-26,,Y,CIBIC Score,CIBICVAL,3.0,Xanomeline Low Dose,Xan_Lo,1.0,54.0,85.0,>80,3.0,M,Y,Y,Y,Y,Y,Y,Y,2013-10-02,2014-04-04,,1.0,1.0,1.0,1.0
01-716-1157,10.0,10.0,CDISCPILOT01,ADQSCIBC,716,716,1157,WEEK 16,WEEK 16,Wk16,111.0,111.0,112.0,16.0,2014-01-20,2014-01-20,,Y,CIBIC Score,CIBICVAL,5.0,Xanomeline Low Dose,Xan_Lo,1.0,54.0,85.0,>80,3.0,M,Y,Y,Y,Y,Y,Y,Y,2013-10-02,2014-04-04,,1.0,1.0,1.0,1.0
01-716-1157,12.0,12.0,CDISCPILOT01,ADQSCIBC,716,716,1157,WEEK 24,WEEK 24,Wk24,176.0,176.0,168.0,24.0,2014-03-26,2014-03-26,,Y,CIBIC Score,CIBICVAL,5.0,Xanomeline Low Dose,Xan_Lo,1.0,54.0,85.0,>80,3.0,M,Y,Y,Y,Y,Y,Y,Y,2013-10-02,2014-04-04,,1.0,1.0,1.0,1.0
01-716-1160,8.0,8.0,CDISCPILOT01,ADQSCIBC,716,716,1160,WEEK 8,WEEK 8,Wk8,69.0,69.0,56.0,8.0,2013-06-12,2013-06-12,,Y,CIBIC Score,CIBICVAL,4.0,Placebo,Pbo,0.0,0.0,83.0,>80,3.0,F,Y,Y,Y,Y,Y,Y,Y,2013-04-05,2013-10-11,,1.0,1.0,1.0,1.0
01-716-1160,10.0,10.0,CDISCPILOT01,ADQSCIBC,716,716,1160,WEEK 16,WEEK 16,Wk16,114.0,114.0,112.0,16.0,2013-07-27,2013-07-27,,Y,CIBIC Score,CIBICVAL,4.0,Placebo,Pbo,0.0,0.0,83.0,>80,3.0,F,Y,Y,Y,Y,Y,Y,Y,2013-04-05,2013-10-11,,1.0,1.0,1.0,1.0
01-716-1160,12.0,12.0,CDISCPILOT01,ADQSCIBC,716,716,1160,WEEK 24,WEEK 24,Wk24,176.0,176.0,168.0,24.0,2013-09-27,2013-09-27,,Y,CIBIC Score,CIBICVAL,4.0,Placebo,Pbo,0.0,0.0,83.0,>80,3.0,F,Y,Y,Y,Y,Y,Y,Y,2013-04-05,2013-10-11,,1.0,1.0,1.0,1.0
01-716-1167,8.0,8.0,CDISCPILOT01,ADQSCIBC,716,716,1167,WEEK 8,WEEK 8,Wk8,57.0,57.0,56.0,8.0,2012-12-03,2012-12-03,,Y,CIBIC Score,CIBICVAL,3.0,Xanomeline Low Dose,Xan_Lo,1.0,54.0,68.0,65-80,2.0,M,Y,Y,Y,Y,Y,Y,Y,2012-10-08,2013-04-12,,1.0,1.0,1.0,1.0
01-716-1167,10.0,10.0,CDISCPILOT01,ADQSCIBC,716,716,1167,WEEK 16,WEEK 16,Wk16,113.0,113.0,112.0,16.0,2013-01-28,2013-01-28,,Y,CIBIC Score,CIBICVAL,5.0,Xanomeline Low Dose,Xan_Lo,1.0,54.0,68.0,65-80,2.0,M,Y,Y,Y,Y,Y,Y,Y,2012-10-08,2013-04-12,,1.0,1.0,1.0,1.0
01-716-1167,12.0,12.0,CDISCPILOT01,ADQSCIBC,716,716,1167,WEEK 24,WEEK 24,Wk24,168.0,168.0,168.0,24.0,2013-03-24,2013-03-24,,Y,CIBIC Score,CIBICVAL,3.0,Xanomeline Low Dose,Xan_Lo,1.0,54.0,68.0,65-80,2.0,M,Y,Y,Y,Y,Y,Y,Y,2012-10-08,2013-04-12,,1.0,1.0,1.0,1.0
01-716-1177,8.0,8.0,CDISCPILOT01,ADQSCIBC,716,716,1177,WEEK 8,WEEK 8,Wk8,59.0,59.0,56.0,8.0,2014-10-30,2014-10-30,,Y,CIBIC Score,CIBICVAL,4.0,Placebo,Pbo,0.0,0.0,72.0,65-80,2.0,M,Y,Y,Y,Y,Y,Y,Y,2014-09-02,2015-03-05,,1.0,1.0,1.0,1.0
01-716-1177,10.0,10.0,CDISCPILOT01,ADQSCIBC,716,716,1177,WEEK 16,WEEK 16,Wk16,122.0,122.0,112.0,16.0,2015-01-01,2015-01-01,,Y,CIBIC Score,CIBICVAL,5.0,Placebo,Pbo,0.0,0.0,72.0,65-80,2.0,M,Y,Y,Y,Y,Y,Y,Y,2014-09-02,2015-03-05,,1.0,1.0,1.0,1.0
01-716-1177,12.0,12.0,CDISCPILOT01,ADQSCIBC,716,716,1177,WEEK 24,WEEK 24,Wk24,169.0,169.0,168.0,24.0,2015-02-17,2015-02-17,,Y,CIBIC Score,CIBICVAL,4.0,Placebo,Pbo,0.0,0.0,72.0,65-80,2.0,M,Y,Y,Y,Y,Y,Y,Y,2014-09-02,2015-03-05,,1.0,1.0,1.0,1.0
01-716-1189,8.0,8.0,CDISCPILOT01,ADQSCIBC,716,716,1189,WEEK 8,WEEK 8,Wk8,61.0,61.0,56.0,8.0,2012-12-08,2012-12-08,,Y,CIBIC Score,CIBICVAL,6.0,Xanomeline High Dose,Xan_Hi,2.0,81.0,81.0,>80,3.0,M,Y,Y,Y,N,Y,Y,Y,2012-10-09,2013-02-27,,1.0,1.0,1.0,1.0
01-716-1189,10.0,10.0,CDISCPILOT01,ADQSCIBC,716,716,1189,WEEK 16,WEEK 16,Wk16,118.0,118.0,112.0,16.0,2013-02-03,2013-02-03,,Y,CIBIC Score,CIBICVAL,5.0,Xanomeline High Dose,Xan_Hi,2.0,81.0,81.0,>80,3.0,M,Y,Y,Y,N,Y,Y,Y,2012-10-09,2013-02-27,,1.0,1.0,1.0,1.0
01-716-1189,11.0,,CDISCPILOT01,ADQSCIBC,716,716,1189,WEEK 20,WEEK 20,,146.0,146.0,140.0,,2013-03-03,2013-03-03,,N,CIBIC Score,CIBICVAL,5.0,Xanomeline High Dose,Xan_Hi,2.0,81.0,81.0,>80,3.0,M,Y,Y,Y,N,Y,Y,N,2012-10-09,2013-02-27,,1.0,,,
01-716-1189,201.0,201.0,CDISCPILOT01,ADQSCIBC,716,716,1189,RETRIEVAL,RETRIEVAL,Wk24,182.0,182.0,168.0,24.0,2013-04-08,2013-04-08,,Y,CIBIC Score,CIBICVAL,6.0,Xanomeline High Dose,Xan_Hi,2.0,81.0,81.0,>80,3.0,M,Y,Y,Y,N,Y,Y,N,2012-10-09,2013-02-27,,1.0,1.0,1.0,1.0
01-716-1229,7.0,,CDISCPILOT01,ADQSCIBC,716,716,1229,WEEK 6,WEEK 6,,42.0,42.0,42.0,,2013-04-02,2013-04-02,,N,CIBIC Score,CIBICVAL,4.0,Xanomeline High Dose,Xan_Hi,2.0,81.0,73.0,65-80,2.0,F,Y,Y,Y,N,N,N,N,2013-02-20,2013-03-31,,1.0,,,
01-716-1229,7.0,8.0,CDISCPILOT01,ADQSCIBC,716,716,1229,WEEK 8,WEEK 6,Wk8,42.0,42.0,42.0,8.0,2013-04-02,2013-04-02,,Y,CIBIC Score,CIBICVAL,4.0,Xanomeline High Dose,Xan_Hi,2.0,81.0,73.0,65-80,2.0,F,Y,Y,Y,N,N,N,N,2013-02-20,2013-03-31,Y,,,1.0,1.0
01-716-1229,7.0,10.0,CDISCPILOT01,ADQSCIBC,716,716,1229,WEEK 16,WEEK 6,Wk16,42.0,42.0,42.0,16.0,2013-04-02,2013-04-02,LOCF,Y,CIBIC Score,CIBICVAL,4.0,Xanomeline High Dose,Xan_Hi,2.0,81.0,73.0,65-80,2.0,F,Y,Y,Y,N,N,N,N,2013-02-20,2013-03-31,Y,,,,1.0
01-716-1229,7.0,12.0,CDISCPILOT01,ADQSCIBC,716,716,1229,WEEK 24,WEEK 6,Wk24,42.0,42.0,42.0,24.0,2013-04-02,2013-04-02,LOCF,Y,CIBIC Score,CIBICVAL,4.0,Xanomeline High Dose,Xan_Hi,2.0,81.0,73.0,65-80,2.0,F,Y,Y,Y,N,N,N,N,2013-02-20,2013-03-31,Y,,,,1.0
01-716-1298,8.0,8.0,CDISCPILOT01,ADQSCIBC,716,716,1298,WEEK 8,WEEK 8,Wk8,61.0,61.0,56.0,8.0,2013-06-07,2013-06-07,,Y,CIBIC Score,CIBICVAL,4.0,Xanomeline Low Dose,Xan_Lo,1.0,54.0,76.0,65-80,2.0,F,Y,Y,Y,N,N,Y,Y,2013-04-08,2013-06-28,,1.0,1.0,1.0,1.0
01-716-1298,9.0,,CDISCPILOT01,ADQSCIBC,716,716,1298,WEEK 12,WEEK 12,,90.0,90.0,84.0,,2013-07-06,2013-07-06,,N,CIBIC Score,CIBICVAL,4.0,Xanomeline Low Dose,Xan_Lo,1.0,54.0,76.0,65-80,2.0,F,Y,Y,Y,N,N,Y,N,2013-04-08,2013-06-28,,1.0,,,
01-716-1298,9.0,10.0,CDISCPILOT01,ADQSCIBC,716,716,1298,WEEK 16,WEEK 12,Wk16,90.0,90.0,84.0,16.0,2013-07-06,2013-07-06,,Y,CIBIC Score,CIBICVAL,4.0,Xanomeline Low Dose,Xan_Lo,1.0,54.0,76.0,65-80,2.0,F,Y,Y,Y,N,N,Y,N,2013-04-08,2013-06-28,Y,,,1.0,1.0
01-716-1298,201.0,201.0,CDISCPILOT01,ADQSCIBC,716,716,1298,RETRIEVAL,RETRIEVAL,Wk24,183.0,183.0,168.0,24.0,2013-10-07,2013-10-07,,Y,CIBIC Score,CIBICVAL,5.0,Xanomeline Low Dose,Xan_Lo,1.0,54.0,76.0,65-80,2.0,F,Y,Y,Y,N,N,Y,N,2013-04-08,2013-06-28,,1.0,1.0,1.0,1.0
01-716-1308,7.0,,CDISCPILOT01,ADQSCIBC,716,716,1308,WEEK 6,WEEK 6,,41.0,41.0,42.0,,2013-10-07,2013-10-07,,N,CIBIC Score,CIBICVAL,6.0,Placebo,Pbo,0.0,0.0,76.0,65-80,2.0,F,Y,Y,Y,N,N,N,Y,2013-08-28,2013-10-07,,1.0,,,
01-716-1308,7.0,8.0,CDISCPILOT01,ADQSCIBC,716,716,1308,WEEK 8,WEEK 6,Wk8,41.0,41.0,42.0,8.0,2013-10-07,2013-10-07,,Y,CIBIC Score,CIBICVAL,6.0,Placebo,Pbo,0.0,0.0,76.0,65-80,2.0,F,Y,Y,Y,N,N,N,Y,2013-08-28,2013-10-07,Y,,,1.0,1.0
01-716-1308,7.0,10.0,CDISCPILOT01,ADQSCIBC,716,716,1308,WEEK 16,WEEK 6,Wk16,41.0,41.0,42.0,16.0,2013-10-07,2013-10-07,LOCF,Y,CIBIC Score,CIBICVAL,6.0,Placebo,Pbo,0.0,0.0,76.0,65-80,2.0,F,Y,Y,Y,N,N,N,Y,2013-08-28,2013-10-07,Y,,,,1.0
01-716-1308,7.0,12.0,CDISCPILOT01,ADQSCIBC,716,716,1308,WEEK 24,WEEK 6,Wk24,41.0,41.0,42.0,24.0,2013-10-07,2013-10-07,LOCF,Y,CIBIC Score,CIBICVAL,6.0,Placebo,Pbo,0.0,0.0,76.0,65-80,2.0,F,Y,Y,Y,N,N,N,Y,2013-08-28,2013-10-07,Y,,,,1.0
01-716-1311,8.0,8.0,CDISCPILOT01,ADQSCIBC,716,716,1311,WEEK 8,WEEK 8,Wk8,56.0,56.0,56.0,8.0,2014-07-08,2014-07-08,,Y,CIBIC Score,CIBICVAL,4.0,Xanomeline Low Dose,Xan_Lo,1.0,54.0,78.0,65-80,2.0,M,Y,Y,Y,N,Y,Y,Y,2014-05-14,2014-09-21,,1.0,1.0,1.0,1.0
01-716-1311,10.0,10.0,CDISCPILOT01,ADQSCIBC,716,716,1311,WEEK 16,WEEK 16,Wk16,120.0,120.0,112.0,16.0,2014-09-10,2014-09-10,,Y,CIBIC Score,CIBICVAL,6.0,Xanomeline Low Dose,Xan_Lo,1.0,54.0,78.0,65-80,2.0,M,Y,Y,Y,N,Y,Y,Y,2014-05-14,2014-09-21,,1.0,1.0,1.0,1.0
01-716-1311,201.0,201.0,CDISCPILOT01,ADQSCIBC,716,716,1311,RETRIEVAL,RETRIEVAL,Wk24,186.0,186.0,168.0,24.0,2014-11-15,2014-11-15,,Y,CIBIC Score,CIBICVAL,5.0,Xanomeline Low Dose,Xan_Lo,1.0,54.0,78.0,65-80,2.0,M,Y,Y,Y,N,Y,Y,N,2014-05-14,2014-09-21,,1.0,1.0,1.0,1.0
01-716-1364,8.0,8.0,CDISCPILOT01,ADQSCIBC,716,716,1364,WEEK 8,WEEK 8,Wk8,61.0,61.0,56.0,8.0,2013-09-02,2013-09-02,,Y,CIBIC Score,CIBICVAL,4.0,Xanomeline High Dose,Xan_Hi,2.0,81.0,84.0,>80,3.0,F,Y,Y,Y,Y,Y,Y,Y,2013-07-04,2014-01-09,,1.0,1.0,1.0,1.0
01-716-1364,10.0,10.0,CDISCPILOT01,ADQSCIBC,716,716,1364,WEEK 16,WEEK 16,Wk16,127.0,127.0,112.0,16.0,2013-11-07,2013-11-07,,Y,CIBIC Score,CIBICVAL,5.0,Xanomeline High Dose,Xan_Hi,2.0,81.0,84.0,>80,3.0,F,Y,Y,Y,Y,Y,Y,Y,2013-07-04,2014-01-09,,1.0,1.0,1.0,1.0
01-716-1364,12.0,12.0,CDISCPILOT01,ADQSCIBC,716,716,1364,WEEK 24,WEEK 24,Wk24,173.0,173.0,168.0,24.0,2013-12-23,2013-12-23,,Y,CIBIC Score,CIBICVAL,5.0,Xanomeline High Dose,Xan_Hi,2.0,81.0,84.0,>80,3.0,F,Y,Y,Y,Y,Y,Y,Y,2013-07-04,2014-01-09,,1.0,1.0,1.0,1.0
01-716-1373,8.0,8.0,CDISCPILOT01,ADQSCIBC,716,716,1373,WEEK 8,WEEK 8,Wk8,58.0,58.0,56.0,8.0,2013-02-09,2013-02-09,,Y,CIBIC Score,CIBICVAL,3.0,Xanomeline High Dose,Xan_Hi,2.0,81.0,74.0,65-80,2.0,M,Y,Y,Y,N,N,Y,Y,2012-12-14,2013-02-27,,1.0,1.0,1.0,1.0
01-716-1373,8.0,10.0,CDISCPILOT01,ADQSCIBC,716,716,1373,WEEK 16,WEEK 8,Wk16,58.0,58.0,56.0,16.0,2013-02-09,2013-02-09,LOCF,Y,CIBIC Score,CIBICVAL,3.0,Xanomeline High Dose,Xan_Hi,2.0,81.0,74.0,65-80,2.0,M,Y,Y,Y,N,N,Y,Y,2012-12-14,2013-02-27,Y,,,,1.0
01-716-1373,8.0,12.0,CDISCPILOT01,ADQSCIBC,716,716,1373,WEEK 24,WEEK 8,Wk24,58.0,58.0,56.0,24.0,2013-02-09,2013-02-09,LOCF,Y,CIBIC Score,CIBICVAL,3.0,Xanomeline High Dose,Xan_Hi,2.0,81.0,74.0,65-80,2.0,M,Y,Y,Y,N,N,Y,Y,2012-12-14,2013-02-27,Y,,,,1.0
01-716-1373,9.0,,CDISCPILOT01,ADQSCIBC,716,716,1373,WEEK 12,WEEK 12,,77.0,77.0,84.0,,2013-02-28,2013-02-28,,N,CIBIC Score,CIBICVAL,3.0,Xanomeline High Dose,Xan_Hi,2.0,81.0,74.0,65-80,2.0,M,Y,Y,Y,N,N,Y,N,2012-12-14,2013-02-27,,1.0,,,
01-716-1418,8.0,8.0,CDISCPILOT01,ADQSCIBC,716,716,1418,WEEK 8,WEEK 8,Wk8,68.0,68.0,56.0,8.0,2013-07-11,2013-07-11,,Y,CIBIC Score,CIBICVAL,4.0,Xanomeline High Dose,Xan_Hi,2.0,81.0,80.0,65-80,2.0,F,Y,Y,Y,Y,Y,Y,Y,2013-05-05,2013-11-20,,1.0,1.0,1.0,1.0
01-716-1418,10.0,10.0,CDISCPILOT01,ADQSCIBC,716,716,1418,WEEK 16,WEEK 16,Wk16,124.0,124.0,112.0,16.0,2013-09-05,2013-09-05,,Y,CIBIC Score,CIBICVAL,3.0,Xanomeline High Dose,Xan_Hi,2.0,81.0,80.0,65-80,2.0,F,Y,Y,Y,Y,Y,Y,Y,2013-05-05,2013-11-20,,1.0,1.0,1.0,1.0
01-716-1418,12.0,12.0,CDISCPILOT01,ADQSCIBC,716,716,1418,WEEK 24,WEEK 24,Wk24,186.0,186.0,168.0,24.0,2013-11-06,2013-11-06,,Y,CIBIC Score,CIBICVAL,5.0,Xanomeline High Dose,Xan_Hi,2.0,81.0,80.0,65-80,2.0,F,Y,Y,Y,Y,Y,Y,Y,2013-05-05,2013-11-20,,1.0,1.0,1.0,1.0
01-716-1441,8.0,8.0,CDISCPILOT01,ADQSCIBC,716,716,1441,WEEK 8,WEEK 8,Wk8,57.0,57.0,56.0,8.0,2014-03-19,2014-03-19,,Y,CIBIC Score,CIBICVAL,4.0,Placebo,Pbo,0.0,0.0,85.0,>80,3.0,M,Y,Y,Y,Y,Y,Y,Y,2014-01-22,2014-07-22,,1.0,1.0,1.0,1.0
01-716-1441,10.0,10.0,CDISCPILOT01,ADQSCIBC,716,716,1441,WEEK 16,WEEK 16,Wk16,118.0,118.0,112.0,16.0,2014-05-19,2014-05-19,,Y,CIBIC Score,CIBICVAL,3.0,Placebo,Pbo,0.0,0.0,85.0,>80,3.0,M,Y,Y,Y,Y,Y,Y,Y,2014-01-22,2014-07-22,,1.0,1.0,1.0,1.0
01-716-1441,12.0,12.0,CDISCPILOT01,ADQSCIBC,716,716,1441,WEEK 24,WEEK 24,Wk24,168.0,168.0,168.0,24.0,2014-07-08,2014-07-08,,Y,CIBIC Score,CIBICVAL,5.0,Placebo,Pbo,0.0,0.0,85.0,>80,3.0,M,Y,Y,Y,Y,Y,Y,Y,2014-01-22,2014-07-22,,1.0,1.0,1.0,1.0
01-716-1447,8.0,8.0,CDISCPILOT01,ADQSCIBC,716,716,1447,WEEK 8,WEEK 8,Wk8,57.0,57.0,56.0,8.0,2014-02-10,2014-02-10,,Y,CIBIC Score,CIBICVAL,2.0,Xanomeline High Dose,Xan_Hi,2.0,81.0,72.0,65-80,2.0,F,Y,Y,Y,Y,Y,Y,Y,2013-12-16,2014-06-17,,1.0,1.0,1.0,1.0
01-716-1447,10.0,10.0,CDISCPILOT01,ADQSCIBC,716,716,1447,WEEK 16,WEEK 16,Wk16,118.0,118.0,112.0,16.0,2014-04-12,2014-04-12,,Y,CIBIC Score,CIBICVAL,2.0,Xanomeline High Dose,Xan_Hi,2.0,81.0,72.0,65-80,2.0,F,Y,Y,Y,Y,Y,Y,Y,2013-12-16,2014-06-17,,1.0,1.0,1.0,1.0
01-716-1447,12.0,12.0,CDISCPILOT01,ADQSCIBC,716,716,1447,WEEK 24,WEEK 24,Wk24,174.0,174.0,168.0,24.0,2014-06-07,2014-06-07,,Y,CIBIC Score,CIBICVAL,3.0,Xanomeline High Dose,Xan_Hi,2.0,81.0,72.0,65-80,2.0,F,Y,Y,Y,Y,Y,Y,Y,2013-12-16,2014-06-17,,1.0,1.0,1.0,1.0
01-717-1004,8.0,8.0,CDISCPILOT01,ADQSCIBC,717,900,1004,WEEK 8,WEEK 8,Wk8,57.0,57.0,56.0,8.0,2014-03-11,2014-03-11,,Y,CIBIC Score,CIBICVAL,3.0,Xanomeline Low Dose,Xan_Lo,1.0,54.0,80.0,65-80,2.0,F,Y,Y,Y,Y,Y,Y,Y,2014-01-14,2014-07-16,,1.0,1.0,1.0,1.0
01-717-1004,10.0,10.0,CDISCPILOT01,ADQSCIBC,717,900,1004,WEEK 16,WEEK 16,Wk16,113.0,113.0,112.0,16.0,2014-05-06,2014-05-06,,Y,CIBIC Score,CIBICVAL,4.0,Xanomeline Low Dose,Xan_Lo,1.0,54.0,80.0,65-80,2.0,F,Y,Y,Y,Y,Y,Y,Y,2014-01-14,2014-07-16,,1.0,1.0,1.0,1.0
01-717-1004,12.0,12.0,CDISCPILOT01,ADQSCIBC,717,900,1004,WEEK 24,WEEK 24,Wk24,169.0,169.0,168.0,24.0,2014-07-01,2014-07-01,,Y,CIBIC Score,CIBICVAL,4.0,Xanomeline Low Dose,Xan_Lo,1.0,54.0,80.0,65-80,2.0,F,Y,Y,Y,Y,Y,Y,Y,2014-01-14,2014-07-16,,1.0,1.0,1.0,1.0
01-717-1109,8.0,8.0,CDISCPILOT01,ADQSCIBC,717,900,1109,WEEK 8,WEEK 8,Wk8,57.0,57.0,56.0,8.0,2014-03-24,2014-03-24,,Y,CIBIC Score,CIBICVAL,5.0,Xanomeline High Dose,Xan_Hi,2.0,81.0,84.0,>80,3.0,M,Y,Y,Y,Y,Y,Y,Y,2014-01-27,2014-07-28,,1.0,1.0,1.0,1.0
01-717-1109,10.0,10.0,CDISCPILOT01,ADQSCIBC,717,900,1109,WEEK 16,WEEK 16,Wk16,113.0,113.0,112.0,16.0,2014-05-19,2014-05-19,,Y,CIBIC Score,CIBICVAL,5.0,Xanomeline High Dose,Xan_Hi,2.0,81.0,84.0,>80,3.0,M,Y,Y,Y,Y,Y,Y,Y,2014-01-27,2014-07-28,,1.0,1.0,1.0,1.0
01-717-1109,12.0,12.0,CDISCPILOT01,ADQSCIBC,717,900,1109,WEEK 24,WEEK 24,Wk24,173.0,173.0,168.0,24.0,2014-07-18,2014-07-18,,Y,CIBIC Score,CIBICVAL,6.0,Xanomeline High Dose,Xan_Hi,2.0,81.0,84.0,>80,3.0,M,Y,Y,Y,Y,Y,Y,Y,2014-01-27,2014-07-28,,1.0,1.0,1.0,1.0
01-717-1174,8.0,8.0,CDISCPILOT01,ADQSCIBC,717,900,1174,WEEK 8,WEEK 8,Wk8,57.0,57.0,56.0,8.0,2013-03-19,2013-03-19,,Y,CIBIC Score,CIBICVAL,4.0,Xanomeline High Dose,Xan_Hi,2.0,81.0,73.0,65-80,2.0,M,Y,Y,Y,Y,Y,Y,Y,2013-01-22,2013-07-24,,1.0,1.0,1.0,1.0
01-717-1174,10.0,10.0,CDISCPILOT01,ADQSCIBC,717,900,1174,WEEK 16,WEEK 16,Wk16,117.0,117.0,112.0,16.0,2013-05-18,2013-05-18,,Y,CIBIC Score,CIBICVAL,5.0,Xanomeline High Dose,Xan_Hi,2.0,81.0,73.0,65-80,2.0,M,Y,Y,Y,Y,Y,Y,Y,2013-01-22,2013-07-24,,1.0,1.0,1.0,1.0
01-717-1174,12.0,12.0,CDISCPILOT01,ADQSCIBC,717,900,1174,WEEK 24,WEEK 24,Wk24,167.0,167.0,168.0,24.0,2013-07-07,2013-07-07,,Y,CIBIC Score,CIBICVAL,5.0,Xanomeline High Dose,Xan_Hi,2.0,81.0,73.0,65-80,2.0,M,Y,Y,Y,Y,Y,Y,Y,2013-01-22,2013-07-24,,1.0,1.0,1.0,1.0
01-717-1201,8.0,8.0,CDISCPILOT01,ADQSCIBC,717,900,1201,WEEK 8,WEEK 8,Wk8,65.0,65.0,56.0,8.0,2014-02-21,2014-02-21,,Y,CIBIC Score,CIBICVAL,5.0,Placebo,Pbo,0.0,0.0,85.0,>80,3.0,F,Y,Y,Y,N,N,Y,Y,2013-12-19,2014-02-21,,1.0,1.0,1.0,1.0
01-717-1201,8.0,10.0,CDISCPILOT01,ADQSCIBC,717,900,1201,WEEK 16,WEEK 8,Wk16,65.0,65.0,56.0,16.0,2014-02-21,2014-02-21,LOCF,Y,CIBIC Score,CIBICVAL,5.0,Placebo,Pbo,0.0,0.0,85.0,>80,3.0,F,Y,Y,Y,N,N,Y,Y,2013-12-19,2014-02-21,Y,,,,1.0
01-717-1201,8.0,12.0,CDISCPILOT01,ADQSCIBC,717,900,1201,WEEK 24,WEEK 8,Wk24,65.0,65.0,56.0,24.0,2014-02-21,2014-02-21,LOCF,Y,CIBIC Score,CIBICVAL,5.0,Placebo,Pbo,0.0,0.0,85.0,>80,3.0,F,Y,Y,Y,N,N,Y,Y,2013-12-19,2014-02-21,Y,,,,1.0
01-717-1344,8.0,8.0,CDISCPILOT01,ADQSCIBC,717,900,1344,WEEK 8,WEEK 8,Wk8,63.0,63.0,56.0,8.0,2014-03-14,2014-03-14,,Y,CIBIC Score,CIBICVAL,4.0,Placebo,Pbo,0.0,0.0,64.0,<65,1.0,F,Y,Y,Y,N,N,Y,Y,2014-01-11,2014-03-14,,1.0,1.0,1.0,1.0
01-717-1344,8.0,10.0,CDISCPILOT01,ADQSCIBC,717,900,1344,WEEK 16,WEEK 8,Wk16,63.0,63.0,56.0,16.0,2014-03-14,2014-03-14,LOCF,Y,CIBIC Score,CIBICVAL,4.0,Placebo,Pbo,0.0,0.0,64.0,<65,1.0,F,Y,Y,Y,N,N,Y,Y,2014-01-11,2014-03-14,Y,,,,1.0
01-717-1344,8.0,12.0,CDISCPILOT01,ADQSCIBC,717,900,1344,WEEK 24,WEEK 8,Wk24,63.0,63.0,56.0,24.0,2014-03-14,2014-03-14,LOCF,Y,CIBIC Score,CIBICVAL,4.0,Placebo,Pbo,0.0,0.0,64.0,<65,1.0,F,Y,Y,Y,N,N,Y,Y,2014-01-11,2014-03-14,Y,,,,1.0
01-717-1357,8.0,8.0,CDISCPILOT01,ADQSCIBC,717,900,1357,WEEK 8,WEEK 8,Wk8,50.0,50.0,56.0,8.0,2013-06-19,2013-06-19,,Y,CIBIC Score,CIBICVAL,5.0,Xanomeline High Dose,Xan_Hi,2.0,81.0,77.0,65-80,2.0,M,Y,Y,Y,Y,Y,Y,Y,2013-05-01,2013-10-14,,1.0,1.0,1.0,1.0
01-717-1357,10.0,10.0,CDISCPILOT01,ADQSCIBC,717,900,1357,WEEK 16,WEEK 16,Wk16,113.0,113.0,112.0,16.0,2013-08-21,2013-08-21,,Y,CIBIC Score,CIBICVAL,4.0,Xanomeline High Dose,Xan_Hi,2.0,81.0,77.0,65-80,2.0,M,Y,Y,Y,Y,Y,Y,Y,2013-05-01,2013-10-14,,1.0,1.0,1.0,1.0
01-717-1357,12.0,12.0,CDISCPILOT01,ADQSCIBC,717,900,1357,WEEK 24,WEEK 24,Wk24,173.0,173.0,168.0,24.0,2013-10-20,2013-10-20,,Y,CIBIC Score,CIBICVAL,5.0,Xanomeline High Dose,Xan_Hi,2.0,81.0,77.0,65-80,2.0,M,Y,Y,Y,Y,Y,Y,N,2013-05-01,2013-10-14,,1.0,1.0,1.0,1.0
01-717-1446,8.0,8.0,CDISCPILOT01,ADQSCIBC,717,900,1446,WEEK 8,WEEK 8,Wk8,60.0,60.0,56.0,8.0,2013-10-30,2013-10-30,,Y,CIBIC Score,CIBICVAL,4.0,Xanomeline Low Dose,Xan_Lo,1.0,54.0,75.0,65-80,2.0,F,Y,Y,Y,Y,Y,Y,Y,2013-09-01,2014-03-03,,1.0,1.0,1.0,1.0
01-717-1446,10.0,10.0,CDISCPILOT01,ADQSCIBC,717,900,1446,WEEK 16,WEEK 16,Wk16,120.0,120.0,112.0,16.0,2013-12-29,2013-12-29,,Y,CIBIC Score,CIBICVAL,4.0,Xanomeline Low Dose,Xan_Lo,1.0,54.0,75.0,65-80,2.0,F,Y,Y,Y,Y,Y,Y,Y,2013-09-01,2014-03-03,,1.0,1.0,1.0,1.0
01-717-1446,12.0,12.0,CDISCPILOT01,ADQSCIBC,717,900,1446,WEEK 24,WEEK 24,Wk24,169.0,169.0,168.0,24.0,2014-02-16,2014-02-16,,Y,CIBIC Score,CIBICVAL,4.0,Xanomeline Low Dose,Xan_Lo,1.0,54.0,75.0,65-80,2.0,F,Y,Y,Y,Y,Y,Y,Y,2013-09-01,2014-03-03,,1.0,1.0,1.0,1.0
01-718-1066,4.0,,CDISCPILOT01,ADQSCIBC,718,718,1066,WEEK 2,WEEK 2,,24.0,24.0,14.0,,2013-07-30,2013-07-30,,N,CIBIC Score,CIBICVAL,5.0,Xanomeline Low Dose,Xan_Lo,1.0,54.0,79.0,65-80,2.0,F,Y,Y,Y,N,N,N,N,2013-07-07,2013-07-16,,1.0,,,
01-718-1066,4.0,8.0,CDISCPILOT01,ADQSCIBC,718,718,1066,WEEK 8,WEEK 2,Wk8,24.0,24.0,14.0,8.0,2013-07-30,2013-07-30,,Y,CIBIC Score,CIBICVAL,5.0,Xanomeline Low Dose,Xan_Lo,1.0,54.0,79.0,65-80,2.0,F,Y,Y,Y,N,N,N,N,2013-07-07,2013-07-16,Y,,,1.0,1.0
01-718-1066,4.0,10.0,CDISCPILOT01,ADQSCIBC,718,718,1066,WEEK 16,WEEK 2,Wk16,24.0,24.0,14.0,16.0,2013-07-30,2013-07-30,LOCF,Y,CIBIC Score,CIBICVAL,5.0,Xanomeline Low Dose,Xan_Lo,1.0,54.0,79.0,65-80,2.0,F,Y,Y,Y,N,N,N,N,2013-07-07,2013-07-16,Y,,,,1.0
01-718-1066,201.0,201.0,CDISCPILOT01,ADQSCIBC,718,718,1066,RETRIEVAL,RETRIEVAL,Wk24,191.0,191.0,168.0,24.0,2014-01-13,2014-01-13,,Y,CIBIC Score,CIBICVAL,5.0,Xanomeline Low Dose,Xan_Lo,1.0,54.0,79.0,65-80,2.0,F,Y,Y,Y,N,N,N,N,2013-07-07,2013-07-16,,1.0,1.0,1.0,1.0
01-718-1079,7.0,,CDISCPILOT01,ADQSCIBC,718,718,1079,WEEK 6,WEEK 6,,49.0,49.0,42.0,,2012-11-06,2012-11-06,,N,CIBIC Score,CIBICVAL,4.0,Xanomeline Low Dose,Xan_Lo,1.0,54.0,67.0,65-80,2.0,F,Y,Y,Y,N,N,N,N,2012-09-19,2012-10-31,,1.0,,,
01-718-1079,7.0,8.0,CDISCPILOT01,ADQSCIBC,718,718,1079,WEEK 8,WEEK 6,Wk8,49.0,49.0,42.0,8.0,2012-11-06,2012-11-06,,Y,CIBIC Score,CIBICVAL,4.0,Xanomeline Low Dose,Xan_Lo,1.0,54.0,67.0,65-80,2.0,F,Y,Y,Y,N,N,N,N,2012-09-19,2012-10-31,Y,,,1.0,1.0
01-718-1079,7.0,10.0,CDISCPILOT01,ADQSCIBC,718,718,1079,WEEK 16,WEEK 6,Wk16,49.0,49.0,42.0,16.0,2012-11-06,2012-11-06,LOCF,Y,CIBIC Score,CIBICVAL,4.0,Xanomeline Low Dose,Xan_Lo,1.0,54.0,67.0,65-80,2.0,F,Y,Y,Y,N,N,N,N,2012-09-19,2012-10-31,Y,,,,1.0
01-718-1079,201.0,201.0,CDISCPILOT01,ADQSCIBC,718,718,1079,RETRIEVAL,RETRIEVAL,Wk24,168.0,168.0,168.0,24.0,2013-03-05,2013-03-05,,Y,CIBIC Score,CIBICVAL,3.0,Xanomeline Low Dose,Xan_Lo,1.0,54.0,67.0,65-80,2.0,F,Y,Y,Y,N,N,N,N,2012-09-19,2012-10-31,,1.0,1.0,1.0,1.0
01-718-1101,8.0,8.0,CDISCPILOT01,ADQSCIBC,718,718,1101,WEEK 8,WEEK 8,Wk8,56.0,56.0,56.0,8.0,2013-04-13,2013-04-13,,Y,CIBIC Score,CIBICVAL,4.0,Xanomeline High Dose,Xan_Hi,2.0,81.0,82.0,>80,3.0,M,Y,Y,Y,Y,Y,Y,Y,2013-02-17,2013-07-31,,1.0,1.0,1.0,1.0
01-718-1101,10.0,10.0,CDISCPILOT01,ADQSCIBC,718,718,1101,WEEK 16,WEEK 16,Wk16,118.0,118.0,112.0,16.0,2013-06-14,2013-06-14,,Y,CIBIC Score,CIBICVAL,5.0,Xanomeline High Dose,Xan_Hi,2.0,81.0,82.0,>80,3.0,M,Y,Y,Y,Y,Y,Y,Y,2013-02-17,2013-07-31,,1.0,1.0,1.0,1.0
01-718-1101,12.0,12.0,CDISCPILOT01,ADQSCIBC,718,718,1101,WEEK 24,WEEK 24,Wk24,167.0,167.0,168.0,24.0,2013-08-02,2013-08-02,,Y,CIBIC Score,CIBICVAL,4.0,Xanomeline High Dose,Xan_Hi,2.0,81.0,82.0,>80,3.0,M,Y,Y,Y,Y,Y,Y,N,2013-02-17,2013-07-31,,1.0,1.0,1.0,1.0
01-718-1139,8.0,8.0,CDISCPILOT01,ADQSCIBC,718,718,1139,WEEK 8,WEEK 8,Wk8,57.0,57.0,56.0,8.0,2013-07-14,2013-07-14,,Y,CIBIC Score,CIBICVAL,4.0,Placebo,Pbo,0.0,0.0,77.0,65-80,2.0,M,Y,Y,Y,Y,Y,Y,Y,2013-05-19,2013-11-17,,1.0,1.0,1.0,1.0
01-718-1139,10.0,10.0,CDISCPILOT01,ADQSCIBC,718,718,1139,WEEK 16,WEEK 16,Wk16,113.0,113.0,112.0,16.0,2013-09-08,2013-09-08,,Y,CIBIC Score,CIBICVAL,4.0,Placebo,Pbo,0.0,0.0,77.0,65-80,2.0,M,Y,Y,Y,Y,Y,Y,Y,2013-05-19,2013-11-17,,1.0,1.0,1.0,1.0
01-718-1139,12.0,12.0,CDISCPILOT01,ADQSCIBC,718,718,1139,WEEK 24,WEEK 24,Wk24,169.0,169.0,168.0,24.0,2013-11-03,2013-11-03,,Y,CIBIC Score,CIBICVAL,4.0,Placebo,Pbo,0.0,0.0,77.0,65-80,2.0,M,Y,Y,Y,Y,Y,Y,Y,2013-05-19,2013-11-17,,1.0,1.0,1.0,1.0
01-718-1150,8.0,8.0,CDISCPILOT01,ADQSCIBC,718,718,1150,WEEK 8,WEEK 8,Wk8,58.0,58.0,56.0,8.0,2013-03-17,2013-03-17,,Y,CIBIC Score,CIBICVAL,4.0,Placebo,Pbo,0.0,0.0,73.0,65-80,2.0,F,Y,Y,Y,Y,Y,Y,Y,2013-01-19,2013-07-29,,1.0,1.0,1.0,1.0
01-718-1150,10.0,10.0,CDISCPILOT01,ADQSCIBC,718,718,1150,WEEK 16,WEEK 16,Wk16,112.0,112.0,112.0,16.0,2013-05-10,2013-05-10,,Y,CIBIC Score,CIBICVAL,4.0,Placebo,Pbo,0.0,0.0,73.0,65-80,2.0,F,Y,Y,Y,Y,Y,Y,Y,2013-01-19,2013-07-29,,1.0,1.0,1.0,1.0
01-718-1150,12.0,12.0,CDISCPILOT01,ADQSCIBC,718,718,1150,WEEK 24,WEEK 24,Wk24,170.0,170.0,168.0,24.0,2013-07-07,2013-07-07,,Y,CIBIC Score,CIBICVAL,4.0,Placebo,Pbo,0.0,0.0,73.0,65-80,2.0,F,Y,Y,Y,Y,Y,Y,Y,2013-01-19,2013-07-29,,1.0,1.0,1.0,1.0
01-718-1170,5.0,,CDISCPILOT01,ADQSCIBC,718,718,1170,WEEK 4,WEEK 4,,49.0,49.0,28.0,,2013-11-03,2013-11-03,,N,CIBIC Score,CIBICVAL,5.0,Xanomeline Low Dose,Xan_Lo,1.0,54.0,80.0,65-80,2.0,F,Y,Y,Y,N,N,N,N,2013-09-16,2013-10-12,,1.0,,,
01-718-1170,5.0,8.0,CDISCPILOT01,ADQSCIBC,718,718,1170,WEEK 8,WEEK 4,Wk8,49.0,49.0,28.0,8.0,2013-11-03,2013-11-03,,Y,CIBIC Score,CIBICVAL,5.0,Xanomeline Low Dose,Xan_Lo,1.0,54.0,80.0,65-80,2.0,F,Y,Y,Y,N,N,N,N,2013-09-16,2013-10-12,Y,,,1.0,1.0
01-718-1170,5.0,10.0,CDISCPILOT01,ADQSCIBC,718,718,1170,WEEK 16,WEEK 4,Wk16,49.0,49.0,28.0,16.0,2013-11-03,2013-11-03,LOCF,Y,CIBIC Score,CIBICVAL,5.0,Xanomeline Low Dose,Xan_Lo,1.0,54.0,80.0,65-80,2.0,F,Y,Y,Y,N,N,N,N,2013-09-16,2013-10-12,Y,,,,1.0
01-718-1170,201.0,201.0,CDISCPILOT01,ADQSCIBC,718,718,1170,RETRIEVAL,RETRIEVAL,Wk24,181.0,181.0,168.0,24.0,2014-03-15,2014-03-15,,Y,CIBIC Score,CIBICVAL,4.0,Xanomeline Low Dose,Xan_Lo,1.0,54.0,80.0,65-80,2.0,F,Y,Y,Y,N,N,N,N,2013-09-16,2013-10-12,,1.0,1.0,1.0,1.0
01-718-1172,8.0,8.0,CDISCPILOT01,ADQSCIBC,718,718,1172,WEEK 8,WEEK 8,Wk8,57.0,57.0,56.0,8.0,2013-11-16,2013-11-16,,Y,CIBIC Score,CIBICVAL,4.0,Placebo,Pbo,0.0,0.0,74.0,65-80,2.0,M,Y,Y,Y,N,N,Y,Y,2013-09-21,2013-11-29,,1.0,1.0,1.0,1.0
01-718-1172,8.0,10.0,CDISCPILOT01,ADQSCIBC,718,718,1172,WEEK 16,WEEK 8,Wk16,57.0,57.0,56.0,16.0,2013-11-16,2013-11-16,LOCF,Y,CIBIC Score,CIBICVAL,4.0,Placebo,Pbo,0.0,0.0,74.0,65-80,2.0,M,Y,Y,Y,N,N,Y,Y,2013-09-21,2013-11-29,Y,,,,1.0
01-718-1172,9.0,,CDISCPILOT01,ADQSCIBC,718,718,1172,WEEK 12,WEEK 12,,70.0,70.0,84.0,,2013-11-29,2013-11-29,,N,CIBIC Score,CIBICVAL,4.0,Placebo,Pbo,0.0,0.0,74.0,65-80,2.0,M,Y,Y,Y,N,N,Y,Y,2013-09-21,2013-11-29,,1.0,,,
01-718-1172,201.0,201.0,CDISCPILOT01,ADQSCIBC,718,718,1172,RETRIEVAL,RETRIEVAL,Wk24,182.0,182.0,168.0,24.0,2014-03-21,2014-03-21,,Y,CIBIC Score,CIBICVAL,4.0,Placebo,Pbo,0.0,0.0,74.0,65-80,2.0,M,Y,Y,Y,N,N,Y,N,2013-09-21,2013-11-29,,1.0,1.0,1.0,1.0
01-718-1250,8.0,8.0,CDISCPILOT01,ADQSCIBC,718,718,1250,WEEK 8,WEEK 8,Wk8,57.0,57.0,56.0,8.0,2013-11-16,2013-11-16,,Y,CIBIC Score,CIBICVAL,4.0,Xanomeline Low Dose,Xan_Lo,1.0,54.0,82.0,>80,3.0,F,Y,Y,Y,N,Y,Y,Y,2013-09-21,2014-01-31,,1.0,1.0,1.0,1.0
01-718-1250,10.0,10.0,CDISCPILOT01,ADQSCIBC,718,718,1250,WEEK 16,WEEK 16,Wk16,113.0,113.0,112.0,16.0,2014-01-11,2014-01-11,,Y,CIBIC Score,CIBICVAL,4.0,Xanomeline Low Dose,Xan_Lo,1.0,54.0,82.0,>80,3.0,F,Y,Y,Y,N,Y,Y,Y,2013-09-21,2014-01-31,,1.0,1.0,1.0,1.0
01-718-1250,11.0,,CDISCPILOT01,ADQSCIBC,718,718,1250,WEEK 20,WEEK 20,,141.0,141.0,140.0,,2014-02-08,2014-02-08,,N,CIBIC Score,CIBICVAL,4.0,Xanomeline Low Dose,Xan_Lo,1.0,54.0,82.0,>80,3.0,F,Y,Y,Y,N,Y,Y,N,2013-09-21,2014-01-31,,1.0,,,
01-718-1250,201.0,201.0,CDISCPILOT01,ADQSCIBC,718,718,1250,RETRIEVAL,RETRIEVAL,Wk24,169.0,169.0,168.0,24.0,2014-03-08,2014-03-08,,Y,CIBIC Score,CIBICVAL,4.0,Xanomeline Low Dose,Xan_Lo,1.0,54.0,82.0,>80,3.0,F,Y,Y,Y,N,Y,Y,N,2013-09-21,2014-01-31,,1.0,1.0,1.0,1.0
01-718-1254,8.0,8.0,CDISCPILOT01,ADQSCIBC,718,718,1254,WEEK 8,WEEK 8,Wk8,58.0,58.0,56.0,8.0,2013-09-05,2013-09-05,,Y,CIBIC Score,CIBICVAL,4.0,Xanomeline Low Dose,Xan_Lo,1.0,54.0,78.0,65-80,2.0,M,Y,Y,Y,Y,Y,Y,Y,2013-07-10,2014-01-09,,1.0,1.0,1.0,1.0
01-718-1254,10.0,10.0,CDISCPILOT01,ADQSCIBC,718,718,1254,WEEK 16,WEEK 16,Wk16,114.0,114.0,112.0,16.0,2013-10-31,2013-10-31,,Y,CIBIC Score,CIBICVAL,4.0,Xanomeline Low Dose,Xan_Lo,1.0,54.0,78.0,65-80,2.0,M,Y,Y,Y,Y,Y,Y,Y,2013-07-10,2014-01-09,,1.0,1.0,1.0,1.0
01-718-1254,12.0,12.0,CDISCPILOT01,ADQSCIBC,718,718,1254,WEEK 24,WEEK 24,Wk24,170.0,170.0,168.0,24.0,2013-12-26,2013-12-26,,Y,CIBIC Score,CIBICVAL,4.0,Xanomeline Low Dose,Xan_Lo,1.0,54.0,78.0,65-80,2.0,M,Y,Y,Y,Y,Y,Y,Y,2013-07-10,2014-01-09,,1.0,1.0,1.0,1.0
01-718-1328,8.0,8.0,CDISCPILOT01,ADQSCIBC,718,718,1328,WEEK 8,WEEK 8,Wk8,63.0,63.0,56.0,8.0,2013-04-04,2013-04-04,,Y,CIBIC Score,CIBICVAL,5.0,Xanomeline High Dose,Xan_Hi,2.0,81.0,86.0,>80,3.0,M,Y,Y,Y,N,N,Y,Y,2013-02-01,2013-04-18,,1.0,1.0,1.0,1.0
01-718-1328,9.0,,CDISCPILOT01,ADQSCIBC,718,718,1328,WEEK 12,WEEK 12,,90.0,90.0,84.0,,2013-05-01,2013-05-01,,N,CIBIC Score,CIBICVAL,5.0,Xanomeline High Dose,Xan_Hi,2.0,81.0,86.0,>80,3.0,M,Y,Y,Y,N,N,Y,N,2013-02-01,2013-04-18,,1.0,,,
01-718-1328,9.0,10.0,CDISCPILOT01,ADQSCIBC,718,718,1328,WEEK 16,WEEK 12,Wk16,90.0,90.0,84.0,16.0,2013-05-01,2013-05-01,,Y,CIBIC Score,CIBICVAL,5.0,Xanomeline High Dose,Xan_Hi,2.0,81.0,86.0,>80,3.0,M,Y,Y,Y,N,N,Y,N,2013-02-01,2013-04-18,Y,,,1.0,1.0
01-718-1328,201.0,201.0,CDISCPILOT01,ADQSCIBC,718,718,1328,RETRIEVAL,RETRIEVAL,Wk24,174.0,174.0,168.0,24.0,2013-07-24,2013-07-24,,Y,CIBIC Score,CIBICVAL,5.0,Xanomeline High Dose,Xan_Hi,2.0,81.0,86.0,>80,3.0,M,Y,Y,Y,N,N,Y,N,2013-02-01,2013-04-18,,1.0,1.0,1.0,1.0
01-718-1355,8.0,8.0,CDISCPILOT01,ADQSCIBC,718,718,1355,WEEK 8,WEEK 8,Wk8,57.0,57.0,56.0,8.0,2013-04-25,2013-04-25,,Y,CIBIC Score,CIBICVAL,5.0,Placebo,Pbo,0.0,0.0,79.0,65-80,2.0,M,Y,Y,Y,Y,Y,Y,Y,2013-02-28,2013-08-29,,1.0,1.0,1.0,1.0
01-718-1355,10.0,10.0,CDISCPILOT01,ADQSCIBC,718,718,1355,WEEK 16,WEEK 16,Wk16,113.0,113.0,112.0,16.0,2013-06-20,2013-06-20,,Y,CIBIC Score,CIBICVAL,4.0,Placebo,Pbo,0.0,0.0,79.0,65-80,2.0,M,Y,Y,Y,Y,Y,Y,Y,2013-02-28,2013-08-29,,1.0,1.0,1.0,1.0
01-718-1355,12.0,12.0,CDISCPILOT01,ADQSCIBC,718,718,1355,WEEK 24,WEEK 24,Wk24,169.0,169.0,168.0,24.0,2013-08-15,2013-08-15,,Y,CIBIC Score,CIBICVAL,4.0,Placebo,Pbo,0.0,0.0,79.0,65-80,2.0,M,Y,Y,Y,Y,Y,Y,Y,2013-02-28,2013-08-29,,1.0,1.0,1.0,1.0
01-718-1371,9.0,,CDISCPILOT01,ADQSCIBC,718,718,1371,WEEK 12,WEEK 12,,105.0,105.0,84.0,,2013-08-08,2013-08-08,,N,CIBIC Score,CIBICVAL,4.0,Xanomeline High Dose,Xan_Hi,2.0,81.0,69.0,65-80,2.0,F,Y,Y,Y,N,N,Y,N,2013-04-26,2013-08-01,,1.0,,,
01-718-1371,9.0,10.0,CDISCPILOT01,ADQSCIBC,718,718,1371,WEEK 16,WEEK 12,Wk16,105.0,105.0,84.0,16.0,2013-08-08,2013-08-08,,Y,CIBIC Score,CIBICVAL,4.0,Xanomeline High Dose,Xan_Hi,2.0,81.0,69.0,65-80,2.0,F,Y,Y,Y,N,N,Y,N,2013-04-26,2013-08-01,Y,,,1.0,1.0
01-718-1371,9.0,12.0,CDISCPILOT01,ADQSCIBC,718,718,1371,WEEK 24,WEEK 12,Wk24,105.0,105.0,84.0,24.0,2013-08-08,2013-08-08,LOCF,Y,CIBIC Score,CIBICVAL,4.0,Xanomeline High Dose,Xan_Hi,2.0,81.0,69.0,65-80,2.0,F,Y,Y,Y,N,N,Y,N,2013-04-26,2013-08-01,Y,,,,1.0
01-718-1427,8.0,8.0,CDISCPILOT01,ADQSCIBC,718,718,1427,WEEK 8,WEEK 8,Wk8,64.0,64.0,56.0,8.0,2013-02-18,2013-02-18,,Y,CIBIC Score,CIBICVAL,4.0,Xanomeline High Dose,Xan_Hi,2.0,81.0,74.0,65-80,2.0,F,Y,Y,Y,N,N,Y,N,2012-12-17,2013-02-11,,1.0,1.0,1.0,1.0
01-718-1427,8.0,10.0,CDISCPILOT01,ADQSCIBC,718,718,1427,WEEK 16,WEEK 8,Wk16,64.0,64.0,56.0,16.0,2013-02-18,2013-02-18,LOCF,Y,CIBIC Score,CIBICVAL,4.0,Xanomeline High Dose,Xan_Hi,2.0,81.0,74.0,65-80,2.0,F,Y,Y,Y,N,N,Y,N,2012-12-17,2013-02-11,Y,,,,1.0
01-718-1427,201.0,201.0,CDISCPILOT01,ADQSCIBC,718,718,1427,RETRIEVAL,RETRIEVAL,Wk24,169.0,169.0,168.0,24.0,2013-06-03,2013-06-03,,Y,CIBIC Score,CIBICVAL,4.0,Xanomeline High Dose,Xan_Hi,2.0,81.0,74.0,65-80,2.0,F,Y,Y,Y,N,N,Y,N,2012-12-17,2013-02-11,,1.0,1.0,1.0,1.0
