USUBJID,STUDYID,DOMAIN,SITEID,SITEGRP,SUBJID,VISIT1DT,RANDDT,TRTSTDT,RFSTDTC,LSTDOSDT,ENDDT,RFENDTC,VISNUMEN,DISCONT,DSDECOD,DSREASAE,DSREASCD,DEATH,TRTDUR,TRTP,TRTPCD,TRTPN,TRTDOSE,AVGDD,CUMDOSE,ARM,ARMCD,ARMN,AGE,AGEGRP,AGEGRPN,AGEU,RACE,RACEN,SEX,BMIBL,BMIBLGRP,DISONSET,DURDIS,DURDISGR,EDUCLVL,HEIGHTBL,MMSETOT,WEIGHTBL,SAFETY,ITT,EFFICACY,COMPLT24,COMPLT16,COMPLT8
01-701-1015,CDISCPILOT01,ADSL,701,701,1015,2013-12-26,2014-01-02,2014-01-02,2014-01-02,2014-07-02,2014-07-02,2014-07-02,12.0,,PROTOCOL COMPLETED,,Completed,,182.0,Placebo,Pbo,0.0,0.0,0.0,0.0,Placebo,Pbo,0.0,63.0,<65,1.0,YEARS,"HISPANIC (MEXICAN - AMERICAN, MEXICO, CENTRAL AND SOUTH AMERICA)",5.0,F,25.1,25-<30,2010-04-30,43.9,>=12,16.0,147.3,23.0,54.4,Y,Y,Y,Y,Y,Y
01-701-1023,CDISCPILOT01,ADSL,701,701,1023,2012-07-22,2012-08-05,2012-08-05,2012-08-05,2012-09-01,2012-09-02,2012-09-02,5.0,Y,ADVERSE EVENT,Y,Adverse Event,,28.0,Placebo,Pbo,0.0,0.0,0.0,0.0,Placebo,Pbo,0.0,64.0,<65,1.0,YEARS,"HISPANIC (MEXICAN - AMERICAN, MEXICO, CENTRAL AND SOUTH AMERICA)",5.0,M,30.4,>=30,2006-03-11,76.4,>=12,14.0,162.6,23.0,80.3,Y,Y,Y,N,N,N
01-701-1028,CDISCPILOT01,ADSL,701,701,1028,2013-07-11,2013-07-19,2013-07-19,2013-07-19,2014-01-14,2014-01-14,2014-01-14,12.0,,PROTOCOL COMPLETED,,Completed,,180.0,Xanomeline High Dose,Xan_Hi,2.0,81.0,77.7,13986.0,Xanomeline High Dose,Xan_Hi,2.0,71.0,65-80,2.0,YEARS,CAUCASIAN,1.0,M,31.4,>=30,2009-12-16,42.8,>=12,16.0,177.8,23.0,99.3,Y,Y,Y,Y,Y,Y
01-701-1033,CDISCPILOT01,ADSL,701,701,1033,2014-03-10,2014-03-18,2014-03-18,2014-03-18,2014-03-31,2014-04-14,2014-04-14,5.0,Y,SPONSOR DECISION (STUDY OR PATIENT DISCONTINUED BY THE SPONSOR),,Sponsor Decision,,14.0,Xanomeline Low Dose,Xan_Lo,1.0,54.0,54.0,756.0,Xanomeline Low Dose,Xan_Lo,1.0,74.0,65-80,2.0,YEARS,CAUCASIAN,1.0,M,28.8,25-<30,2009-08-02,55.3,>=12,12.0,175.3,23.0,88.5,Y,Y,Y,N,N,N
01-701-1034,CDISCPILOT01,ADSL,701,701,1034,2014-06-24,2014-07-01,2014-07-01,2014-07-01,2014-12-30,2014-12-30,2014-12-30,12.0,,PROTOCOL COMPLETED,,Completed,,183.0,Xanomeline High Dose,Xan_Hi,2.0,81.0,76.9,14067.0,Xanomeline High Dose,Xan_Hi,2.0,77.0,65-80,2.0,YEARS,CAUCASIAN,1.0,F,26.1,25-<30,2011-09-29,32.9,>=12,9.0,154.9,21.0,62.6,Y,Y,Y,Y,Y,Y
01-701-1047,CDISCPILOT01,ADSL,701,701,1047,2013-01-22,2013-02-12,2013-02-12,2013-02-12,2013-03-09,2013-03-29,2013-03-29,6.0,Y,ADVERSE EVENT,Y,Adverse Event,,26.0,Placebo,Pbo,0.0,0.0,0.0,0.0,Placebo,Pbo,0.0,85.0,>80,3.0,YEARS,CAUCASIAN,1.0,F,30.4,>=30,2009-07-26,42.0,>=12,8.0,148.6,23.0,67.1,Y,Y,Y,N,N,N
01-701-1097,CDISCPILOT01,ADSL,701,701,1097,2013-12-23,2014-01-01,2014-01-01,2014-01-01,2014-07-09,2014-07-09,2014-07-09,12.0,,PROTOCOL COMPLETED,,Completed,,190.0,Xanomeline Low Dose,Xan_Lo,1.0,54.0,54.0,10260.0,Xanomeline Low Dose,Xan_Lo,1.0,68.0,65-80,2.0,YEARS,CAUCASIAN,1.0,M,27.3,25-<30,2005-09-22,99.1,>=12,18.0,168.9,10.0,78.0,Y,Y,Y,Y,Y,Y
01-701-1111,CDISCPILOT01,ADSL,701,701,1111,2012-08-25,2012-09-07,2012-09-07,2012-09-07,2012-09-16,2012-09-17,2012-09-17,4.0,Y,ADVERSE EVENT,Y,Adverse Event,,10.0,Xanomeline Low Dose,Xan_Lo,1.0,54.0,54.0,540.0,Xanomeline Low Dose,Xan_Lo,1.0,81.0,>80,3.0,YEARS,CAUCASIAN,1.0,F,23.9,<25,2009-04-04,40.7,>=12,22.0,158.2,23.0,59.9,Y,Y,Y,N,N,N
01-701-1115,CDISCPILOT01,ADSL,701,701,1115,2012-11-23,2012-11-30,2012-11-30,2012-11-30,2013-01-23,2013-01-23,2013-01-23,8.0,Y,ADVERSE EVENT,Y,Adverse Event,,55.0,Xanomeline Low Dose,Xan_Lo,1.0,54.0,54.0,2970.0,Xanomeline Low Dose,Xan_Lo,1.0,84.0,>80,3.0,YEARS,CAUCASIAN,1.0,M,23.9,<25,2004-05-28,101.9,>=12,12.0,181.6,20.0,78.9,Y,Y,Y,N,N,Y
01-701-1118,CDISCPILOT01,ADSL,701,701,1118,2014-02-27,2014-03-12,2014-03-12,2014-03-12,2014-09-09,2014-09-09,2014-09-09,12.0,,PROTOCOL COMPLETED,,Completed,,182.0,Placebo,Pbo,0.0,0.0,0.0,0.0,Placebo,Pbo,0.0,52.0,<65,1.0,YEARS,CAUCASIAN,1.0,M,21.9,<25,2010-06-24,44.2,>=12,14.0,180.3,20.0,71.2,Y,Y,Y,Y,Y,Y
01-701-1130,CDISCPILOT01,ADSL,701,701,1130,2014-02-09,2014-02-15,2014-02-15,2014-02-15,2014-08-16,2014-08-16,2014-08-16,12.0,,PROTOCOL COMPLETED,,Completed,,183.0,Placebo,Pbo,0.0,0.0,0.0,0.0,Placebo,Pbo,0.0,84.0,>80,3.0,YEARS,CAUCASIAN,1.0,M,27.6,25-<30,2010-05-22,44.7,>=12,12.0,169.7,19.0,79.4,Y,Y,Y,Y,Y,Y
01-701-1133,CDISCPILOT01,ADSL,701,701,1133,2012-10-23,2012-10-28,2012-10-28,2012-10-28,2013-04-28,2013-04-29,2013-04-29,12.0,,PROTOCOL COMPLETED,,Completed,,183.0,Xanomeline High Dose,Xan_Hi,2.0,81.0,77.2,14121.0,Xanomeline High Dose,Xan_Hi,2.0,81.0,>80,3.0,YEARS,CAUCASIAN,1.0,F,28.1,25-<30,2010-03-11,31.5,>=12,10.0,162.6,21.0,74.4,Y,Y,Y,Y,Y,Y
01-701-1146,CDISCPILOT01,ADSL,701,701,1146,2013-05-07,2013-05-20,2013-05-20,2013-05-20,2013-06-26,2013-06-30,2013-06-30,7.0,Y,ADVERSE EVENT,Y,Adverse Event,,38.0,Xanomeline High Dose,Xan_Hi,2.0,81.0,70.3,2673.0,Xanomeline High Dose,Xan_Hi,2.0,75.0,65-80,2.0,YEARS,CAUCASIAN,1.0,F,24.9,<25,2009-11-17,41.7,>=12,16.0,147.3,22.0,54.0,Y,Y,Y,N,N,N
01-701-1148,CDISCPILOT01,ADSL,701,701,1148,2013-08-14,2013-08-23,2013-08-23,2013-08-23,2014-02-20,2014-02-20,2014-02-20,12.0,,PROTOCOL COMPLETED,,Completed,,182.0,Xanomeline High Dose,Xan_Hi,2.0,81.0,77.1,14040.0,Xanomeline High Dose,Xan_Hi,2.0,57.0,<65,1.0,YEARS,CAUCASIAN,1.0,M,28.3,25-<30,2010-12-12,32.1,>=12,15.0,175.3,21.0,87.1,Y,Y,Y,Y,Y,Y
01-701-1153,CDISCPILOT01,ADSL,701,701,1153,2013-09-06,2013-09-23,2013-09-23,2013-09-23,2014-03-16,2014-04-01,2014-04-01,12.0,,PROTOCOL COMPLETED,,Completed,,175.0,Placebo,Pbo,0.0,0.0,0.0,0.0,Placebo,Pbo,0.0,79.0,65-80,2.0,YEARS,CAUCASIAN,1.0,F,23.8,<25,2005-05-13,99.8,>=12,6.0,156.2,10.0,58.1,Y,Y,Y,Y,Y,Y
01-701-1180,CDISCPILOT01,ADSL,701,701,1180,2013-01-28,2013-02-12,2013-02-12,2013-02-12,2013-03-18,2013-03-23,2013-03-23,7.0,Y,ADVERSE EVENT,Y,Adverse Event,,35.0,Xanomeline High Dose,Xan_Hi,2.0,81.0,70.2,2457.0,Xanomeline High Dose,Xan_Hi,2.0,56.0,<65,1.0,YEARS,CAUCASIAN,1.0,M,27.6,25-<30,2008-09-21,52.3,>=12,16.0,180.3,19.0,89.8,Y,Y,Y,N,N,N
01-701-1181,CDISCPILOT01,ADSL,701,701,1181,2013-11-26,2013-12-05,2013-12-05,2013-12-05,2013-12-09,2013-12-12,2013-12-12,4.0,Y,ADVERSE EVENT,Y,Adverse Event,,5.0,Xanomeline High Dose,Xan_Hi,2.0,81.0,54.0,270.0,Xanomeline High Dose,Xan_Hi,2.0,79.0,65-80,2.0,YEARS,CAUCASIAN,1.0,F,27.8,25-<30,2008-08-26,63.0,>=12,15.0,154.9,10.0,66.7,Y,Y,Y,N,N,N
01-701-1188,CDISCPILOT01,ADSL,701,701,1188,2013-02-03,2013-02-15,2013-02-15,2013-02-15,2013-03-24,2013-03-25,2013-03-25,7.0,Y,ADVERSE EVENT,Y,Adverse Event,,38.0,Xanomeline Low Dose,Xan_Lo,1.0,54.0,54.0,2052.0,Xanomeline Low Dose,Xan_Lo,1.0,71.0,65-80,2.0,YEARS,CAUCASIAN,1.0,M,32.0,>=30,2005-09-14,88.7,>=12,16.0,177.8,23.0,101.2,Y,Y,Y,N,N,N
01-701-1192,CDISCPILOT01,ADSL,701,701,1192,2012-07-08,2012-07-22,2012-07-22,2012-07-22,2013-01-20,2013-01-20,2013-01-20,12.0,,PROTOCOL COMPLETED,,Completed,,183.0,Xanomeline Low Dose,Xan_Lo,1.0,54.0,54.0,9882.0,Xanomeline Low Dose,Xan_Lo,1.0,80.0,65-80,2.0,YEARS,CAUCASIAN,1.0,F,27.8,25-<30,2009-03-15,39.8,>=12,12.0,151.1,23.0,63.5,Y,Y,Y,Y,Y,Y
01-701-1203,CDISCPILOT01,ADSL,701,701,1203,2013-01-25,2013-02-02,2013-02-02,2013-02-02,2013-08-03,2013-08-03,2013-08-03,12.0,,PROTOCOL COMPLETED,,Completed,,183.0,Placebo,Pbo,0.0,0.0,0.0,0.0,Placebo,Pbo,0.0,81.0,>80,3.0,YEARS,"AFRICAN DESCENT (NEGRO, BLACK)",2.0,F,25.9,25-<30,2011-04-19,21.3,>=12,13.0,160.0,21.0,66.2,Y,Y,Y,Y,Y,Y
01-701-1211,CDISCPILOT01,ADSL,701,701,1211,2012-10-30,2012-11-15,2012-11-15,2012-11-15,2013-01-12,2013-01-14,2013-01-14,9.0,Y,DEATH,,Death,Y,59.0,Xanomeline Low Dose,Xan_Lo,1.0,54.0,54.0,3186.0,Xanomeline Low Dose,Xan_Lo,1.0,76.0,65-80,2.0,YEARS,CAUCASIAN,1.0,F,17.7,<25,2010-03-19,31.4,>=12,12.0,160.0,12.0,45.4,Y,Y,Y,N,N,Y
01-701-1234,CDISCPILOT01,ADSL,701,701,1234,2013-03-20,2013-03-30,2013-03-30,2013-03-30,2013-09-22,2013-09-22,2013-09-22,12.0,,PROTOCOL COMPLETED,,Completed,,177.0,Placebo,Pbo,0.0,0.0,0.0,0.0,Placebo,Pbo,0.0,69.0,65-80,2.0,YEARS,CAUCASIAN,1.0,M,23.4,<25,2006-08-11,79.3,>=12,18.0,181.6,20.0,77.1,Y,Y,Y,Y,Y,Y
01-701-1239,CDISCPILOT01,ADSL,701,701,1239,2013-12-28,2014-01-11,2014-01-11,2014-01-11,2014-07-10,2014-07-11,2014-07-11,12.0,,PROTOCOL COMPLETED,,Completed,,181.0,Xanomeline High Dose,Xan_Hi,2.0,81.0,76.8,13905.0,Xanomeline High Dose,Xan_Hi,2.0,56.0,<65,1.0,YEARS,"HISPANIC (MEXICAN - AMERICAN, MEXICO, CENTRAL AND SOUTH AMERICA)",5.0,M,33.6,>=30,2003-09-23,123.2,>=12,11.0,168.9,23.0,95.9,Y,Y,Y,Y,Y,Y
01-701-1275,CDISCPILOT01,ADSL,701,701,1275,2014-01-25,2014-02-07,2014-02-07,2014-02-07,2014-05-31,2014-06-14,2014-06-14,10.0,Y,PERSONAL CONFLICT OR OTHER PATIENT/CAREGIVER DECISION,,Withdrew Consent,,114.0,Xanomeline High Dose,Xan_Hi,2.0,81.0,77.2,8802.0,Xanomeline High Dose,Xan_Hi,2.0,61.0,<65,1.0,YEARS,"OTHER (MIXED - RACIAL HERITAGE, AMERICAN INDIAN, ESKIMO)",6.0,M,24.6,<25,2011-09-17,28.3,>=12,12.0,167.6,22.0,69.0,Y,Y,Y,N,Y,Y
01-701-1287,CDISCPILOT01,ADSL,701,701,1287,2014-01-17,2014-01-25,2014-01-25,2014-01-25,2014-07-26,2014-07-26,2014-07-26,12.0,,PROTOCOL COMPLETED,,Completed,,183.0,Xanomeline High Dose,Xan_Hi,2.0,81.0,76.3,13959.0,Xanomeline High Dose,Xan_Hi,2.0,56.0,<65,1.0,YEARS,"HISPANIC (MEXICAN - AMERICAN, MEXICO, CENTRAL AND SOUTH AMERICA)",5.0,F,23.5,<25,2009-10-30,50.6,>=12,14.0,154.9,22.0,56.3,Y,Y,Y,Y,Y,Y
01-701-1294,CDISCPILOT01,ADSL,701,701,1294,2013-03-17,2013-03-24,2013-03-24,2013-03-24,2013-06-14,2013-06-14,2013-06-14,9.0,Y,ADVERSE EVENT,Y,Adverse Event,,83.0,Xanomeline Low Dose,Xan_Lo,1.0,54.0,54.0,4482.0,Xanomeline Low Dose,Xan_Lo,1.0,67.0,65-80,2.0,YEARS,CAUCASIAN,1.0,M,27.1,25-<30,2011-09-09,18.3,>=12,16.0,170.2,23.0,78.5,Y,Y,Y,N,N,Y
01-701-1302,CDISCPILOT01,ADSL,701,701,1302,2013-08-20,2013-08-29,2013-08-29,2013-08-29,2013-11-05,2013-11-05,2013-11-05,9.0,Y,ADVERSE EVENT,Y,Adverse Event,,69.0,Xanomeline High Dose,Xan_Hi,2.0,81.0,74.0,5103.0,Xanomeline High Dose,Xan_Hi,2.0,61.0,<65,1.0,YEARS,CAUCASIAN,1.0,M,26.0,25-<30,2007-02-09,78.4,>=12,15.0,177.8,23.0,82.1,Y,Y,Y,N,N,Y
01-701-1317,CDISCPILOT01,ADSL,701,701,1317,2014-05-10,2014-05-22,2014-05-22,2014-05-22,2014-11-20,2014-11-20,2014-11-20,12.0,,PROTOCOL COMPLETED,,Completed,,183.0,Xanomeline Low Dose,Xan_Lo,1.0,54.0,54.0,9882.0,Xanomeline Low Dose,Xan_Lo,1.0,68.0,65-80,2.0,YEARS,CAUCASIAN,1.0,M,21.4,<25,2013-09-16,7.8,<12,20.0,176.5,20.0,66.7,Y,Y,Y,Y,Y,Y
01-701-1324,CDISCPILOT01,ADSL,701,701,1324,2012-09-16,2012-10-02,2012-10-02,2012-10-02,2013-04-02,2013-04-02,2013-04-02,12.0,,PROTOCOL COMPLETED,,Completed,,183.0,Xanomeline Low Dose,Xan_Lo,1.0,54.0,54.0,9882.0,Xanomeline Low Dose,Xan_Lo,1.0,79.0,65-80,2.0,YEARS,CAUCASIAN,1.0,M,27.8,25-<30,2009-10-11,35.2,>=12,18.0,166.4,23.0,77.1,Y,Y,Y,Y,Y,Y
01-701-1341,CDISCPILOT01,ADSL,701,701,1341,2012-12-22,2013-01-05,2013-01-05,2013-01-05,2013-01-26,2013-02-07,2013-02-07,5.0,Y,ADVERSE EVENT,Y,Adverse Event,,22.0,Xanomeline Low Dose,Xan_Lo,1.0,54.0,54.0,1188.0,Xanomeline Low Dose,Xan_Lo,1.0,51.0,<65,1.0,YEARS,CAUCASIAN,1.0,M,28.5,25-<30,2006-06-05,78.6,>=12,24.0,157.5,23.0,70.8,Y,Y,Y,N,N,N
01-701-1345,CDISCPILOT01,ADSL,701,701,1345,2013-10-01,2013-10-08,2013-10-08,2013-10-08,2014-03-18,2014-03-18,2014-03-18,12.0,Y,SPONSOR DECISION (STUDY OR PATIENT DISCONTINUED BY THE SPONSOR),,Sponsor Decision,,162.0,Placebo,Pbo,0.0,0.0,0.0,0.0,Placebo,Pbo,0.0,63.0,<65,1.0,YEARS,CAUCASIAN,1.0,F,18.6,<25,2010-11-05,34.9,>=12,15.0,174.0,23.0,56.3,Y,Y,Y,Y,Y,Y
01-701-1360,CDISCPILOT01,ADSL,701,701,1360,2013-07-24,2013-07-31,2013-07-31,2013-07-31,2013-08-05,2013-08-14,2013-08-14,4.0,Y,PHYSICIAN DECISION,,Physician Decision,,6.0,Xanomeline High Dose,Xan_Hi,2.0,81.0,54.0,324.0,Xanomeline High Dose,Xan_Hi,2.0,67.0,65-80,2.0,YEARS,CAUCASIAN,1.0,M,29.0,25-<30,2008-12-02,55.7,>=12,10.0,166.4,23.0,80.3,Y,Y,Y,N,N,N
01-701-1363,CDISCPILOT01,ADSL,701,701,1363,2013-05-20,2013-05-30,2013-05-30,2013-05-30,2013-11-27,2013-11-27,2013-11-27,12.0,,PROTOCOL COMPLETED,,Completed,,182.0,Placebo,Pbo,0.0,0.0,0.0,0.0,Placebo,Pbo,0.0,81.0,>80,3.0,YEARS,"AFRICAN DESCENT (NEGRO, BLACK)",2.0,F,24.9,<25,2005-10-20,91.0,>=12,13.0,161.3,22.0,64.9,Y,Y,Y,Y,Y,Y
01-701-1383,CDISCPILOT01,ADSL,701,701,1383,2013-01-22,2013-02-04,2013-02-04,2013-02-04,2013-08-06,2013-08-06,2013-08-06,12.0,,PROTOCOL COMPLETED,,Completed,,184.0,Xanomeline High Dose,Xan_Hi,2.0,81.0,77.6,14283.0,Xanomeline High Dose,Xan_Hi,2.0,72.0,65-80,2.0,YEARS,CAUCASIAN,1.0,F,31.6,>=30,2006-08-20,77.1,>=12,12.0,163.8,22.0,84.8,Y,Y,Y,Y,Y,Y
01-701-1387,CDISCPILOT01,ADSL,701,701,1387,2014-02-23,2014-03-12,2014-03-12,2014-03-12,2014-03-25,2014-03-25,2014-03-25,4.0,Y,PROTOCOL VIOLATION,,Protocol Violation,,14.0,Placebo,Pbo,0.0,0.0,0.0,0.0,Placebo,Pbo,0.0,87.0,>80,3.0,YEARS,CAUCASIAN,1.0,F,22.5,<25,2003-08-17,126.3,>=12,12.0,162.6,11.0,59.4,Y,Y,Y,N,N,N
01-701-1392,CDISCPILOT01,ADSL,701,701,1392,2012-10-17,2012-10-28,2012-10-28,2012-10-28,2013-04-28,2013-04-28,2013-04-28,12.0,,PROTOCOL COMPLETED,,Completed,,183.0,Placebo,Pbo,0.0,0.0,0.0,0.0,Placebo,Pbo,0.0,78.0,65-80,2.0,YEARS,CAUCASIAN,1.0,M,28.9,25-<30,2010-04-25,29.8,>=12,16.0,167.6,23.0,81.2,Y,Y,Y,Y,Y,Y
01-701-1415,CDISCPILOT01,ADSL,701,701,1415,2013-09-15,2013-09-23,2013-09-23,2013-09-23,2014-03-24,2014-03-24,2014-03-24,12.0,,PROTOCOL COMPLETED,,Completed,,183.0,Placebo,Pbo,0.0,0.0,0.0,0.0,Placebo,Pbo,0.0,85.0,>80,3.0,YEARS,CAUCASIAN,1.0,M,25.0,25-<30,1998-06-13,183.1,>=12,10.0,175.3,18.0,76.7,Y,Y,Y,Y,Y,Y
01-701-1429,CDISCPILOT01,ADSL,701,701,1429,2013-02-25,2013-03-19,2013-03-19,2013-03-19,2013-04-30,2013-04-30,2013-04-30,7.0,Y,PERSONAL CONFLICT OR OTHER PATIENT/CAREGIVER DECISION,,Withdrew Consent,,43.0,Xanomeline Low Dose,Xan_Lo,1.0,54.0,54.0,2322.0,Xanomeline Low Dose,Xan_Lo,1.0,84.0,>80,3.0,YEARS,CAUCASIAN,1.0,F,25.7,25-<30,2008-06-17,56.3,>=12,12.0,148.6,17.0,56.7,Y,Y,Y,N,N,N
01-701-1440,CDISCPILOT01,ADSL,701,701,1440,2013-07-24,2013-08-08,2013-08-08,2013-08-08,2014-02-05,2014-02-05,2014-02-05,12.0,,PROTOCOL COMPLETED,,Completed,,182.0,Placebo,Pbo,0.0,0.0,0.0,0.0,Placebo,Pbo,0.0,70.0,65-80,2.0,YEARS,CAUCASIAN,1.0,M,20.2,<25,2011-04-07,27.6,>=12,18.0,156.2,22.0,49.4,Y,Y,Y,Y,Y,Y
01-701-1442,CDISCPILOT01,ADSL,701,701,1442,2013-10-17,2013-10-26,2013-10-26,2013-10-26,2014-04-26,2014-04-26,2014-04-26,12.0,,PROTOCOL COMPLETED,,Completed,,183.0,Xanomeline Low Dose,Xan_Lo,1.0,54.0,54.0,9882.0,Xanomeline Low Dose,Xan_Lo,1.0,57.0,<65,1.0,YEARS,"AFRICAN DESCENT (NEGRO, BLACK)",2.0,F,40.1,>=30,2006-02-20,91.9,>=12,12.0,162.6,15.0,106.1,Y,Y,Y,Y,Y,Y
01-701-1444,CDISCPILOT01,ADSL,701,701,1444,2012-12-31,2013-01-05,2013-01-05,2013-01-05,2013-02-12,2013-02-13,2013-02-13,7.0,Y,ADVERSE EVENT,Y,Adverse Event,,39.0,Xanomeline High Dose,Xan_Hi,2.0,81.0,71.3,2781.0,Xanomeline High Dose,Xan_Hi,2.0,63.0,<65,1.0,YEARS,"HISPANIC (MEXICAN - AMERICAN, MEXICO, CENTRAL AND SOUTH AMERICA)",5.0,M,34.5,>=30,2008-05-21,55.4,>=12,14.0,171.5,23.0,101.6,Y,Y,Y,N,N,N
01-702-1082,CDISCPILOT01,ADSL,702,900,1082,2013-07-03,2013-07-26,2013-07-26,2013-07-26,2013-10-13,2013-11-17,2013-11-17,9.0,Y,PERSONAL CONFLICT OR OTHER PATIENT/CAREGIVER DECISION,,Withdrew Consent,,80.0,Xanomeline Low Dose,Xan_Lo,1.0,54.0,54.0,4320.0,Xanomeline Low Dose,Xan_Lo,1.0,84.0,>80,3.0,YEARS,CAUCASIAN,1.0,F,,<25,2007-05-17,73.6,>=12,18.0,154.9,23.0,,Y,Y,Y,N,N,Y
01-703-1042,CDISCPILOT01,ADSL,703,703,1042,2013-02-23,2013-03-02,2013-03-02,2013-03-02,2013-08-31,2013-08-31,2013-08-31,12.0,,PROTOCOL COMPLETED,,Completed,,183.0,Placebo,Pbo,0.0,0.0,0.0,0.0,Placebo,Pbo,0.0,64.0,<65,1.0,YEARS,CAUCASIAN,1.0,M,23.5,<25,2008-07-23,55.1,>=12,12.0,177.8,23.0,74.4,Y,Y,Y,Y,Y,Y
01-703-1076,CDISCPILOT01,ADSL,703,703,1076,2013-10-17,2013-10-25,2013-10-25,2013-10-25,2013-12-24,2013-12-24,2013-12-24,9.0,Y,ADVERSE EVENT,Y,Adverse Event,,61.0,Xanomeline High Dose,Xan_Hi,2.0,81.0,75.2,4590.0,Xanomeline High Dose,Xan_Hi,2.0,69.0,65-80,2.0,YEARS,CAUCASIAN,1.0,M,32.0,>=30,2012-08-27,13.7,>=12,10.0,165.1,23.0,87.1,Y,Y,Y,N,N,Y
01-703-1086,CDISCPILOT01,ADSL,703,703,1086,2012-08-22,2012-09-02,2012-09-02,2012-09-02,2012-12-04,2012-12-24,2012-12-24,10.0,Y,ADVERSE EVENT,Y,Adverse Event,,94.0,Xanomeline Low Dose,Xan_Lo,1.0,54.0,54.0,5076.0,Xanomeline Low Dose,Xan_Lo,1.0,71.0,65-80,2.0,YEARS,CAUCASIAN,1.0,M,25.0,25-<30,2011-04-27,15.9,>=12,17.0,195.6,17.0,95.7,Y,Y,Y,N,Y,Y
01-703-1096,CDISCPILOT01,ADSL,703,703,1096,2012-12-19,2013-01-25,2013-01-25,2013-01-25,2013-03-16,2013-03-29,2013-03-29,7.0,Y,UNABLE TO CONTACT PATIENT (LOST TO FOLLOW-UP),,Lost to Follow-up,,51.0,Placebo,Pbo,0.0,0.0,0.0,0.0,Placebo,Pbo,0.0,81.0,>80,3.0,YEARS,CAUCASIAN,1.0,F,31.7,>=30,2006-12-20,72.0,>=12,6.0,160.0,22.0,81.2,Y,Y,N,N,N,N
01-703-1100,CDISCPILOT01,ADSL,703,703,1100,2013-02-28,2013-03-13,2013-03-13,2013-03-13,2013-09-14,2013-09-14,2013-09-14,12.0,,PROTOCOL COMPLETED,,Completed,,186.0,Placebo,Pbo,0.0,0.0,0.0,0.0,Placebo,Pbo,0.0,84.0,>80,3.0,YEARS,CAUCASIAN,1.0,F,21.8,<25,2010-12-02,26.9,>=12,8.0,167.6,22.0,61.2,Y,Y,Y,Y,Y,Y
01-703-1119,CDISCPILOT01,ADSL,703,703,1119,2013-02-02,2013-02-20,2013-02-20,2013-02-20,2013-06-13,2013-06-13,2013-06-13,10.0,Y,ADVERSE EVENT,Y,Adverse Event,,114.0,Xanomeline Low Dose,Xan_Lo,1.0,54.0,54.0,6156.0,Xanomeline Low Dose,Xan_Lo,1.0,81.0,>80,3.0,YEARS,CAUCASIAN,1.0,F,18.4,<25,2005-02-01,96.1,>=12,16.0,160.0,14.0,47.2,Y,Y,Y,N,Y,Y
01-703-1175,CDISCPILOT01,ADSL,703,703,1175,2013-12-13,2013-12-20,2013-12-20,2013-12-20,2013-12-26,2013-12-31,2013-12-31,4.0,Y,PROTOCOL ENTRY CRITERIA NOT MET,,I/E Not Met,,7.0,Placebo,Pbo,0.0,0.0,0.0,0.0,Placebo,Pbo,0.0,75.0,65-80,2.0,YEARS,CAUCASIAN,1.0,M,26.6,25-<30,2010-09-19,38.8,>=12,16.0,170.2,11.0,77.1,Y,Y,Y,N,N,N
01-703-1182,CDISCPILOT01,ADSL,703,703,1182,2013-10-08,2013-10-17,2013-10-17,2013-10-17,2013-12-11,2013-12-12,2013-12-12,8.0,Y,ADVERSE EVENT,Y,Adverse Event,,56.0,Xanomeline Low Dose,Xan_Lo,1.0,54.0,54.0,3024.0,Xanomeline Low Dose,Xan_Lo,1.0,84.0,>80,3.0,YEARS,CAUCASIAN,1.0,M,22.8,<25,2011-09-27,24.4,>=12,12.0,172.7,22.0,68.0,Y,Y,Y,N,N,Y
01-703-1197,CDISCPILOT01,ADSL,703,703,1197,2013-06-01,2013-06-16,2013-06-16,2013-06-16,2013-06-29,2013-07-22,2013-07-22,4.0,Y,PERSONAL CONFLICT OR OTHER PATIENT/CAREGIVER DECISION,,Withdrew Consent,,14.0,Xanomeline Low Dose,Xan_Lo,1.0,54.0,54.0,756.0,Xanomeline Low Dose,Xan_Lo,1.0,76.0,65-80,2.0,YEARS,"AFRICAN DESCENT (NEGRO, BLACK)",2.0,F,38.6,>=30,2012-01-11,16.7,>=12,5.0,162.6,12.0,102.1,Y,Y,Y,N,N,N
01-703-1210,CDISCPILOT01,ADSL,703,703,1210,2013-03-08,2013-03-16,2013-03-16,2013-03-16,2013-09-06,2013-09-06,2013-09-06,12.0,,PROTOCOL COMPLETED,,Completed,,175.0,Placebo,Pbo,0.0,0.0,0.0,0.0,Placebo,Pbo,0.0,72.0,65-80,2.0,YEARS,CAUCASIAN,1.0,F,23.8,<25,2010-02-18,36.6,>=12,12.0,144.8,19.0,49.9,Y,Y,Y,Y,Y,Y
01-703-1258,CDISCPILOT01,ADSL,703,703,1258,2012-07-10,2012-07-20,2012-07-20,2012-07-20,2013-01-11,2013-01-21,2013-01-21,12.0,Y,ADVERSE EVENT,Y,Adverse Event,,176.0,Xanomeline High Dose,Xan_Hi,2.0,81.0,77.3,13608.0,Xanomeline High Dose,Xan_Hi,2.0,78.0,65-80,2.0,YEARS,CAUCASIAN,1.0,F,24.8,<25,2006-02-17,76.7,>=12,12.0,154.9,13.0,59.4,Y,Y,Y,Y,Y,Y
01-703-1279,CDISCPILOT01,ADSL,703,703,1279,2013-04-27,2013-05-13,2013-05-13,2013-05-13,2013-06-03,2013-06-22,2013-06-22,4.0,Y,PERSONAL CONFLICT OR OTHER PATIENT/CAREGIVER DECISION,,Withdrew Consent,,22.0,Xanomeline Low Dose,Xan_Lo,1.0,54.0,54.0,1188.0,Xanomeline Low Dose,Xan_Lo,1.0,72.0,65-80,2.0,YEARS,CAUCASIAN,1.0,F,21.1,<25,2010-07-29,33.0,>=12,12.0,162.6,14.0,55.8,Y,Y,N,N,N,N
01-703-1295,CDISCPILOT01,ADSL,703,703,1295,2013-10-24,2013-11-21,2013-11-21,2013-11-21,2014-04-19,2014-05-19,2014-05-19,11.0,Y,PERSONAL CONFLICT OR OTHER PATIENT/CAREGIVER DECISION,,Withdrew Consent,,150.0,Xanomeline High Dose,Xan_Hi,2.0,81.0,78.3,11745.0,Xanomeline High Dose,Xan_Hi,2.0,88.0,>80,3.0,YEARS,CAUCASIAN,1.0,F,22.7,<25,2012-04-05,18.7,>=12,8.0,157.5,20.0,56.3,Y,Y,Y,N,Y,Y
01-703-1299,CDISCPILOT01,ADSL,703,703,1299,2012-09-07,2012-09-12,2012-09-12,2012-09-12,2013-03-13,2013-03-13,2013-03-13,12.0,,PROTOCOL COMPLETED,,Completed,,183.0,Placebo,Pbo,0.0,0.0,0.0,0.0,Placebo,Pbo,0.0,81.0,>80,3.0,YEARS,CAUCASIAN,1.0,F,19.2,<25,2011-09-16,11.8,<12,12.0,153.7,23.0,45.4,Y,Y,Y,Y,Y,Y
01-703-1335,CDISCPILOT01,ADSL,703,703,1335,2014-02-28,2014-03-17,2014-03-17,2014-03-17,2014-05-07,2014-05-24,2014-05-24,7.0,Y,PROTOCOL VIOLATION,,Protocol Violation,,52.0,Xanomeline High Dose,Xan_Hi,2.0,81.0,73.2,3807.0,Xanomeline High Dose,Xan_Hi,2.0,67.0,65-80,2.0,YEARS,"AFRICAN DESCENT (NEGRO, BLACK)",2.0,F,23.0,<25,2008-01-30,73.0,>=12,11.0,154.9,10.0,55.3,Y,Y,Y,N,N,N
01-703-1379,CDISCPILOT01,ADSL,703,703,1379,2013-09-12,2013-09-22,2013-09-22,2013-09-22,2014-03-21,2014-03-21,2014-03-21,12.0,,PROTOCOL COMPLETED,,Completed,,181.0,Xanomeline Low Dose,Xan_Lo,1.0,54.0,54.0,9774.0,Xanomeline Low Dose,Xan_Lo,1.0,81.0,>80,3.0,YEARS,"AFRICAN DESCENT (NEGRO, BLACK)",2.0,F,30.7,>=30,2009-09-21,47.7,>=12,7.0,157.5,12.0,76.2,Y,Y,Y,Y,Y,Y
01-703-1403,CDISCPILOT01,ADSL,703,703,1403,2012-12-05,2012-12-12,2012-12-12,2012-12-12,2012-12-13,2012-12-19,2012-12-19,4.0,Y,ADVERSE EVENT,Y,Adverse Event,,2.0,Xanomeline High Dose,Xan_Hi,2.0,81.0,54.0,108.0,Xanomeline High Dose,Xan_Hi,2.0,67.0,65-80,2.0,YEARS,CAUCASIAN,1.0,M,25.4,25-<30,2010-12-07,24.0,>=12,12.0,177.8,23.0,80.3,Y,Y,N,N,N,N
01-703-1439,CDISCPILOT01,ADSL,703,703,1439,2014-03-04,2014-03-12,2014-03-12,2014-03-12,2014-09-11,2014-09-11,2014-09-11,12.0,,PROTOCOL COMPLETED,,Completed,,184.0,Xanomeline High Dose,Xan_Hi,2.0,81.0,76.7,14121.0,Xanomeline High Dose,Xan_Hi,2.0,76.0,65-80,2.0,YEARS,CAUCASIAN,1.0,F,24.8,<25,2010-07-29,43.2,>=12,12.0,160.0,16.0,63.5,Y,Y,Y,Y,Y,Y
01-704-1008,CDISCPILOT01,ADSL,704,704,1008,2013-01-06,2013-01-13,2013-01-13,2013-01-13,2013-02-21,2013-02-25,2013-02-25,7.0,Y,ADVERSE EVENT,Y,Adverse Event,,40.0,Xanomeline High Dose,Xan_Hi,2.0,81.0,70.2,2808.0,Xanomeline High Dose,Xan_Hi,2.0,76.0,65-80,2.0,YEARS,CAUCASIAN,1.0,F,21.3,<25,2011-10-17,14.7,>=12,12.0,148.0,21.0,46.7,Y,Y,Y,N,N,N
01-704-1009,CDISCPILOT01,ADSL,704,704,1009,2013-08-20,2013-08-27,2013-08-27,2013-08-27,2013-09-25,2013-10-02,2013-10-02,5.0,Y,PERSONAL CONFLICT OR OTHER PATIENT/CAREGIVER DECISION,,Withdrew Consent,,30.0,Xanomeline Low Dose,Xan_Lo,1.0,54.0,54.0,1620.0,Xanomeline Low Dose,Xan_Lo,1.0,83.0,>80,3.0,YEARS,CAUCASIAN,1.0,M,20.8,<25,2009-02-03,54.5,>=12,16.0,179.1,21.0,66.7,Y,Y,Y,N,N,N
01-704-1010,CDISCPILOT01,ADSL,704,704,1010,2014-02-08,2014-02-21,2014-02-21,2014-02-21,2014-07-08,2014-07-09,2014-07-09,11.0,Y,PERSONAL CONFLICT OR OTHER PATIENT/CAREGIVER DECISION,,Withdrew Consent,,138.0,Placebo,Pbo,0.0,0.0,0.0,0.0,Placebo,Pbo,0.0,80.0,65-80,2.0,YEARS,CAUCASIAN,1.0,M,25.6,25-<30,2006-01-02,97.2,>=12,14.0,177.8,17.0,81.0,Y,Y,Y,N,Y,Y
01-704-1017,CDISCPILOT01,ADSL,704,704,1017,2013-09-20,2013-10-06,2013-10-06,2013-10-06,2013-11-18,2013-11-24,2013-11-24,7.0,Y,ADVERSE EVENT,Y,Adverse Event,,44.0,Xanomeline High Dose,Xan_Hi,2.0,81.0,72.4,3186.0,Xanomeline High Dose,Xan_Hi,2.0,77.0,65-80,2.0,YEARS,CAUCASIAN,1.0,M,21.8,<25,2011-03-27,29.9,>=12,12.0,170.2,21.0,63.1,Y,Y,Y,N,N,N
01-704-1025,CDISCPILOT01,ADSL,704,704,1025,2013-09-18,2013-09-27,2013-09-27,2013-09-27,2013-10-24,2013-11-29,2013-11-29,6.0,Y,ADVERSE EVENT,Y,Adverse Event,,28.0,Xanomeline Low Dose,Xan_Lo,1.0,54.0,54.0,1512.0,Xanomeline Low Dose,Xan_Lo,1.0,81.0,>80,3.0,YEARS,CAUCASIAN,1.0,F,20.1,<25,2012-03-03,18.6,>=12,18.0,166.0,17.0,55.5,Y,Y,Y,N,N,N
01-704-1065,CDISCPILOT01,ADSL,704,704,1065,2013-10-17,2013-10-24,2013-10-24,2013-10-24,2013-12-22,2013-12-24,2013-12-24,9.0,Y,ADVERSE EVENT,Y,Adverse Event,,60.0,Xanomeline High Dose,Xan_Hi,2.0,81.0,74.3,4455.0,Xanomeline High Dose,Xan_Hi,2.0,75.0,65-80,2.0,YEARS,CAUCASIAN,1.0,M,24.8,<25,2010-03-23,42.9,>=12,12.0,180.3,20.0,80.7,Y,Y,Y,N,N,Y
01-704-1074,CDISCPILOT01,ADSL,704,704,1074,2014-01-19,2014-01-22,2014-01-22,2014-01-22,2014-03-20,2014-03-31,2014-03-31,8.0,Y,ADVERSE EVENT,Y,Adverse Event,,58.0,Xanomeline High Dose,Xan_Hi,2.0,81.0,72.2,4185.0,Xanomeline High Dose,Xan_Hi,2.0,80.0,65-80,2.0,YEARS,CAUCASIAN,1.0,F,27.0,25-<30,2009-01-30,59.7,>=12,16.0,167.6,17.0,75.8,Y,Y,Y,N,N,Y
01-704-1093,CDISCPILOT01,ADSL,704,704,1093,2013-02-22,2013-03-15,2013-03-15,2013-03-15,2013-06-17,2013-06-20,2013-06-20,10.0,Y,ADVERSE EVENT,Y,Adverse Event,,95.0,Xanomeline High Dose,Xan_Hi,2.0,81.0,76.5,7263.0,Xanomeline High Dose,Xan_Hi,2.0,79.0,65-80,2.0,YEARS,CAUCASIAN,1.0,M,24.3,<25,2010-07-17,31.3,>=12,12.0,174.0,18.0,73.5,Y,Y,Y,N,Y,Y
01-704-1114,CDISCPILOT01,ADSL,704,704,1114,2013-01-09,2013-01-23,2013-01-23,2013-01-23,2013-07-07,2013-07-08,2013-07-08,12.0,Y,PERSONAL CONFLICT OR OTHER PATIENT/CAREGIVER DECISION,,Withdrew Consent,,166.0,Xanomeline Low Dose,Xan_Lo,1.0,54.0,54.0,8964.0,Xanomeline Low Dose,Xan_Lo,1.0,77.0,65-80,2.0,YEARS,CAUCASIAN,1.0,M,28.1,25-<30,2007-03-25,69.6,>=12,8.0,166.4,20.0,77.8,Y,Y,Y,Y,Y,Y
01-704-1120,CDISCPILOT01,ADSL,704,704,1120,2013-11-18,2013-12-02,2013-12-02,2013-12-02,2014-02-01,2014-02-03,2014-02-03,9.0,Y,ADVERSE EVENT,Y,Adverse Event,,62.0,Xanomeline Low Dose,Xan_Lo,1.0,54.0,54.0,3348.0,Xanomeline Low Dose,Xan_Lo,1.0,71.0,65-80,2.0,YEARS,CAUCASIAN,1.0,F,23.9,<25,2007-03-23,79.9,>=12,13.0,147.0,16.0,51.7,Y,Y,Y,N,N,Y
01-704-1127,CDISCPILOT01,ADSL,704,704,1127,2013-09-16,2013-10-02,2013-10-02,2013-10-02,2014-03-31,2014-03-31,2014-03-31,12.0,,PROTOCOL COMPLETED,,Completed,,181.0,Placebo,Pbo,0.0,0.0,0.0,0.0,Placebo,Pbo,0.0,84.0,>80,3.0,YEARS,CAUCASIAN,1.0,F,15.1,<25,2008-09-11,60.2,>=12,12.0,165.1,22.0,41.1,Y,Y,Y,Y,Y,Y
01-704-1135,CDISCPILOT01,ADSL,704,704,1135,2013-10-23,2013-10-31,2013-10-31,2013-10-31,2014-05-16,2014-05-16,2014-05-16,12.0,,PROTOCOL COMPLETED,,Completed,,198.0,Xanomeline Low Dose,Xan_Lo,1.0,54.0,54.0,10692.0,Xanomeline Low Dose,Xan_Lo,1.0,74.0,65-80,2.0,YEARS,CAUCASIAN,1.0,F,24.6,<25,2010-10-06,36.6,>=12,14.0,161.8,23.0,64.4,Y,Y,Y,Y,Y,Y
01-704-1164,CDISCPILOT01,ADSL,704,704,1164,2012-09-11,2012-09-19,2012-09-19,2012-09-19,2013-04-04,2013-04-04,2013-04-04,12.0,,PROTOCOL COMPLETED,,Completed,,198.0,Placebo,Pbo,0.0,0.0,0.0,0.0,Placebo,Pbo,0.0,67.0,65-80,2.0,YEARS,CAUCASIAN,1.0,F,20.1,<25,2011-03-04,18.3,>=12,10.0,157.5,16.0,49.9,Y,Y,Y,Y,Y,Y
01-704-1218,CDISCPILOT01,ADSL,704,704,1218,2012-11-11,2012-11-19,2012-11-19,2012-11-19,2013-05-27,2013-05-27,2013-05-27,12.0,,PROTOCOL COMPLETED,,Completed,,190.0,Xanomeline Low Dose,Xan_Lo,1.0,54.0,54.0,10260.0,Xanomeline Low Dose,Xan_Lo,1.0,81.0,>80,3.0,YEARS,CAUCASIAN,1.0,F,26.2,25-<30,2010-08-15,26.9,>=12,12.0,144.0,22.0,54.4,Y,Y,Y,Y,Y,Y
01-704-1233,CDISCPILOT01,ADSL,704,704,1233,2013-03-08,2013-03-21,2013-03-21,2013-03-21,2013-07-14,2013-07-14,2013-07-14,11.0,Y,PERSONAL CONFLICT OR OTHER PATIENT/CAREGIVER DECISION,,Withdrew Consent,,116.0,Placebo,Pbo,0.0,0.0,0.0,0.0,Placebo,Pbo,0.0,87.0,>80,3.0,YEARS,CAUCASIAN,1.0,F,21.3,<25,2011-01-15,25.8,>=12,16.0,147.3,15.0,46.3,Y,Y,Y,N,Y,Y
01-704-1241,CDISCPILOT01,ADSL,704,704,1241,2013-08-14,2013-08-25,2013-08-25,2013-08-25,2013-10-09,2013-10-31,2013-10-31,8.0,Y,ADVERSE EVENT,Y,Adverse Event,,46.0,Xanomeline High Dose,Xan_Hi,2.0,81.0,74.0,3402.0,Xanomeline High Dose,Xan_Hi,2.0,86.0,>80,3.0,YEARS,CAUCASIAN,1.0,M,25.2,25-<30,2011-07-25,24.7,>=12,14.0,170.2,21.0,73.0,Y,Y,Y,N,N,Y
01-704-1260,CDISCPILOT01,ADSL,704,704,1260,2012-08-23,2012-08-30,2012-08-30,2012-08-30,2012-11-04,2013-01-18,2013-01-18,9.0,Y,PERSONAL CONFLICT OR OTHER PATIENT/CAREGIVER DECISION,,Withdrew Consent,,67.0,Placebo,Pbo,0.0,0.0,0.0,0.0,Placebo,Pbo,0.0,71.0,65-80,2.0,YEARS,CAUCASIAN,1.0,F,19.1,<25,2002-11-29,116.8,>=12,16.0,160.0,16.0,48.8,Y,Y,Y,N,N,Y
01-704-1266,CDISCPILOT01,ADSL,704,704,1266,2013-10-05,2013-10-13,2013-10-13,2013-10-13,2013-12-06,2013-12-06,2013-12-06,8.0,Y,ADVERSE EVENT,Y,Adverse Event,,55.0,Xanomeline High Dose,Xan_Hi,2.0,81.0,73.6,4050.0,Xanomeline High Dose,Xan_Hi,2.0,82.0,>80,3.0,YEARS,CAUCASIAN,1.0,M,29.2,25-<30,2011-12-02,22.1,>=12,12.0,174.0,16.0,88.5,Y,Y,Y,N,N,Y
01-704-1323,CDISCPILOT01,ADSL,704,704,1323,2013-06-13,2013-07-08,2013-07-08,2013-07-08,2013-08-05,2013-08-08,2013-08-08,7.0,Y,ADVERSE EVENT,Y,Adverse Event,,29.0,Xanomeline Low Dose,Xan_Lo,1.0,54.0,54.0,1566.0,Xanomeline Low Dose,Xan_Lo,1.0,68.0,65-80,2.0,YEARS,CAUCASIAN,1.0,F,22.7,<25,2010-03-23,38.7,>=12,16.0,162.6,23.0,59.9,Y,Y,N,N,N,N
01-704-1325,CDISCPILOT01,ADSL,704,704,1325,2014-04-16,2014-04-23,2014-04-23,2014-04-23,2014-07-04,2014-08-06,2014-08-06,10.0,Y,PROTOCOL VIOLATION,,Protocol Violation,,73.0,Xanomeline Low Dose,Xan_Lo,1.0,54.0,54.0,3942.0,Xanomeline Low Dose,Xan_Lo,1.0,81.0,>80,3.0,YEARS,CAUCASIAN,1.0,M,22.3,<25,2008-11-02,65.4,>=12,16.0,175.3,18.0,68.5,Y,Y,Y,N,Y,Y
01-704-1332,CDISCPILOT01,ADSL,704,704,1332,2013-11-24,2013-12-09,2013-12-09,2013-12-09,2014-02-14,2014-02-16,2014-02-16,9.0,Y,ADVERSE EVENT,Y,Adverse Event,,68.0,Xanomeline High Dose,Xan_Hi,2.0,81.0,75.0,5103.0,Xanomeline High Dose,Xan_Hi,2.0,80.0,65-80,2.0,YEARS,CAUCASIAN,1.0,M,26.2,25-<30,2011-11-09,24.5,>=12,9.0,173.0,22.0,78.5,Y,Y,Y,N,N,Y
01-704-1351,CDISCPILOT01,ADSL,704,704,1351,2013-09-26,2013-10-12,2013-10-12,2013-10-12,2014-04-18,2014-04-18,2014-04-18,12.0,,PROTOCOL COMPLETED,,Completed,,189.0,Placebo,Pbo,0.0,0.0,0.0,0.0,Placebo,Pbo,0.0,70.0,65-80,2.0,YEARS,CAUCASIAN,1.0,M,23.9,<25,2012-09-10,12.6,>=12,12.0,175.3,22.0,73.5,Y,Y,Y,Y,Y,Y
01-704-1388,CDISCPILOT01,ADSL,704,704,1388,2012-11-28,2012-12-07,2012-12-07,2012-12-07,2013-06-11,2013-06-19,2013-06-19,12.0,,PROTOCOL COMPLETED,,Completed,,187.0,Placebo,Pbo,0.0,0.0,0.0,0.0,Placebo,Pbo,0.0,81.0,>80,3.0,YEARS,CAUCASIAN,1.0,M,18.8,<25,2010-10-26,25.1,>=12,11.0,176.5,20.0,58.5,Y,Y,Y,Y,Y,Y
01-704-1435,CDISCPILOT01,ADSL,704,704,1435,2012-11-01,2012-11-17,2012-11-17,2012-11-17,2013-01-09,2013-01-12,2013-01-12,8.0,Y,PERSONAL CONFLICT OR OTHER PATIENT/CAREGIVER DECISION,,Withdrew Consent,,54.0,Placebo,Pbo,0.0,0.0,0.0,0.0,Placebo,Pbo,0.0,74.0,65-80,2.0,YEARS,CAUCASIAN,1.0,M,27.1,25-<30,2010-01-20,33.4,>=12,16.0,167.6,20.0,76.2,Y,Y,Y,N,N,Y
01-704-1445,CDISCPILOT01,ADSL,704,704,1445,2014-05-01,2014-05-11,2014-05-11,2014-05-11,2014-11-01,2014-11-01,2014-11-01,12.0,Y,DEATH,,Death,Y,175.0,Placebo,Pbo,0.0,0.0,0.0,0.0,Placebo,Pbo,0.0,75.0,65-80,2.0,YEARS,CAUCASIAN,1.0,M,22.8,<25,2012-11-11,17.6,>=12,12.0,177.8,23.0,72.1,Y,Y,Y,Y,Y,Y
01-705-1018,CDISCPILOT01,ADSL,705,705,1018,2013-06-30,2013-07-05,2013-07-05,2013-07-05,2013-07-12,2013-07-12,2013-07-12,4.0,Y,PERSONAL CONFLICT OR OTHER PATIENT/CAREGIVER DECISION,,Withdrew Consent,,8.0,Placebo,Pbo,0.0,0.0,0.0,0.0,Placebo,Pbo,0.0,69.0,65-80,2.0,YEARS,CAUCASIAN,1.0,F,22.6,<25,2009-11-21,43.3,>=12,6.0,147.3,18.0,49.0,Y,Y,N,N,N,N
01-705-1031,CDISCPILOT01,ADSL,705,705,1031,2013-11-17,2013-11-27,2013-11-27,2013-11-27,2014-05-11,2014-05-11,2014-05-11,12.0,Y,UNABLE TO CONTACT PATIENT (LOST TO FOLLOW-UP),,Lost to Follow-up,,166.0,Xanomeline Low Dose,Xan_Lo,1.0,54.0,54.0,8964.0,Xanomeline Low Dose,Xan_Lo,1.0,56.0,<65,1.0,YEARS,"HISPANIC (MEXICAN - AMERICAN, MEXICO, CENTRAL AND SOUTH AMERICA)",5.0,F,28.9,25-<30,2010-11-25,35.8,>=12,16.0,157.5,23.0,71.7,Y,Y,Y,Y,Y,Y
01-705-1059,CDISCPILOT01,ADSL,705,705,1059,2013-08-02,2013-08-05,2013-08-05,2013-08-05,2013-12-05,2013-12-05,2013-12-05,10.0,Y,ADVERSE EVENT,Y,Adverse Event,,123.0,Placebo,Pbo,0.0,0.0,0.0,0.0,Placebo,Pbo,0.0,66.0,65-80,2.0,YEARS,CAUCASIAN,1.0,F,20.4,<25,2009-07-20,48.5,>=12,12.0,162.6,16.0,54.0,Y,Y,Y,N,Y,Y
01-705-1186,CDISCPILOT01,ADSL,705,705,1186,2014-01-03,2014-01-08,2014-01-08,2014-01-08,2014-01-26,2014-02-07,2014-02-07,5.0,Y,PHYSICIAN DECISION,,Physician Decision,,19.0,Placebo,Pbo,0.0,0.0,0.0,0.0,Placebo,Pbo,0.0,84.0,>80,3.0,YEARS,CAUCASIAN,1.0,F,19.7,<25,2011-07-03,30.1,>=12,12.0,142.2,15.0,39.9,Y,Y,N,N,N,N
01-705-1199,CDISCPILOT01,ADSL,705,705,1199,2013-09-11,2013-09-16,2013-09-16,2013-09-16,2013-09-28,2013-09-29,2013-09-29,4.0,Y,ADVERSE EVENT,Y,Adverse Event,,13.0,Xanomeline Low Dose,Xan_Lo,1.0,54.0,54.0,702.0,Xanomeline Low Dose,Xan_Lo,1.0,87.0,>80,3.0,YEARS,CAUCASIAN,1.0,M,24.8,<25,2007-09-08,72.1,>=12,20.0,161.3,19.0,64.4,Y,Y,Y,N,N,N
01-705-1280,CDISCPILOT01,ADSL,705,705,1280,2014-01-11,2014-01-17,2014-01-17,2014-01-17,2014-07-25,2014-07-25,2014-07-25,12.0,,PROTOCOL COMPLETED,,Completed,,190.0,Xanomeline High Dose,Xan_Hi,2.0,81.0,76.9,14607.0,Xanomeline High Dose,Xan_Hi,2.0,56.0,<65,1.0,YEARS,CAUCASIAN,1.0,F,28.0,25-<30,2013-01-04,12.3,>=12,12.0,157.5,23.0,69.4,Y,Y,Y,Y,Y,Y
01-705-1281,CDISCPILOT01,ADSL,705,705,1281,2013-11-26,2013-11-28,2013-11-28,2013-11-28,2014-02-27,2014-03-17,2014-03-17,10.0,Y,ADVERSE EVENT,Y,Adverse Event,,92.0,Xanomeline High Dose,Xan_Hi,2.0,81.0,75.7,6966.0,Xanomeline High Dose,Xan_Hi,2.0,73.0,65-80,2.0,YEARS,"AFRICAN DESCENT (NEGRO, BLACK)",2.0,F,31.4,>=30,2012-11-05,12.7,>=12,12.0,152.4,23.0,73.0,Y,Y,Y,N,Y,Y
01-705-1282,CDISCPILOT01,ADSL,705,705,1282,2012-12-23,2012-12-26,2012-12-26,2012-12-26,2013-06-24,2013-06-24,2013-06-24,12.0,,PROTOCOL COMPLETED,,Completed,,181.0,Placebo,Pbo,0.0,0.0,0.0,0.0,Placebo,Pbo,0.0,70.0,65-80,2.0,YEARS,"AFRICAN DESCENT (NEGRO, BLACK)",2.0,F,30.4,>=30,2006-12-06,72.6,>=12,12.0,154.9,10.0,73.0,Y,Y,Y,Y,Y,Y
01-705-1292,CDISCPILOT01,ADSL,705,705,1292,2013-10-11,2013-10-14,2013-10-14,2013-10-14,2014-05-13,2014-05-14,2014-05-14,12.0,,PROTOCOL COMPLETED,,Completed,,212.0,Xanomeline Low Dose,Xan_Lo,1.0,54.0,54.0,11448.0,Xanomeline Low Dose,Xan_Lo,1.0,60.0,<65,1.0,YEARS,"AFRICAN DESCENT (NEGRO, BLACK)",2.0,F,26.8,25-<30,2012-09-28,12.5,>=12,8.0,167.6,23.0,75.3,Y,Y,Y,Y,Y,Y
01-705-1303,CDISCPILOT01,ADSL,705,705,1303,2013-12-10,2013-12-16,2013-12-16,2013-12-16,2014-06-02,2014-06-02,2014-06-02,11.0,Y,ADVERSE EVENT,Y,Adverse Event,,169.0,Xanomeline High Dose,Xan_Hi,2.0,81.0,78.6,13284.0,Xanomeline High Dose,Xan_Hi,2.0,72.0,65-80,2.0,YEARS,CAUCASIAN,1.0,M,27.5,25-<30,2010-12-15,35.9,>=12,12.0,175.3,19.0,84.4,Y,Y,Y,N,Y,Y
01-705-1310,CDISCPILOT01,ADSL,705,705,1310,2013-10-26,2013-11-02,2013-11-02,2013-11-02,2014-01-23,2014-01-23,2014-01-23,9.0,Y,ADVERSE EVENT,Y,Adverse Event,,83.0,Xanomeline High Dose,Xan_Hi,2.0,81.0,74.2,6156.0,Xanomeline High Dose,Xan_Hi,2.0,74.0,65-80,2.0,YEARS,CAUCASIAN,1.0,F,22.7,<25,2011-10-30,23.9,>=12,12.0,146.1,20.0,48.5,Y,Y,Y,N,N,Y
01-705-1349,CDISCPILOT01,ADSL,705,705,1349,2013-02-24,2013-03-10,2013-03-10,2013-03-10,2013-09-08,2013-09-08,2013-09-08,12.0,,PROTOCOL COMPLETED,,Completed,,183.0,Placebo,Pbo,0.0,0.0,0.0,0.0,Placebo,Pbo,0.0,86.0,>80,3.0,YEARS,"HISPANIC (MEXICAN - AMERICAN, MEXICO, CENTRAL AND SOUTH AMERICA)",5.0,F,21.2,<25,2007-03-23,71.2,>=12,10.0,144.8,15.0,44.5,Y,Y,Y,Y,Y,Y
01-705-1377,CDISCPILOT01,ADSL,705,705,1377,2013-12-29,2014-01-04,2014-01-04,2014-01-04,2014-03-07,2014-03-07,2014-03-07,7.0,Y,PERSONAL CONFLICT OR OTHER PATIENT/CAREGIVER DECISION,,Withdrew Consent,,63.0,Xanomeline High Dose,Xan_Hi,2.0,81.0,71.6,4509.0,Xanomeline High Dose,Xan_Hi,2.0,63.0,<65,1.0,YEARS,"AFRICAN DESCENT (NEGRO, BLACK)",2.0,F,21.0,<25,2012-01-05,23.8,>=12,6.0,165.1,14.0,57.2,Y,Y,N,N,N,N
01-705-1382,CDISCPILOT01,ADSL,705,705,1382,2013-05-09,2013-05-13,2013-05-13,2013-05-13,2013-05-13,2013-05-13,2013-05-13,4.0,Y,PROTOCOL ENTRY CRITERIA NOT MET,,I/E Not Met,,1.0,Xanomeline High Dose,Xan_Hi,2.0,81.0,54.0,54.0,Xanomeline High Dose,Xan_Hi,2.0,82.0,>80,3.0,YEARS,CAUCASIAN,1.0,M,33.2,>=30,2012-05-03,12.2,>=12,12.0,170.2,19.0,96.2,Y,Y,N,N,N,N
01-705-1393,CDISCPILOT01,ADSL,705,705,1393,2012-09-02,2012-09-07,2012-09-07,2012-09-07,2013-02-01,2013-02-20,2013-02-20,11.0,Y,ADVERSE EVENT,Y,Adverse Event,,148.0,Xanomeline Low Dose,Xan_Lo,1.0,54.0,54.0,7992.0,Xanomeline Low Dose,Xan_Lo,1.0,84.0,>80,3.0,YEARS,CAUCASIAN,1.0,F,26.9,25-<30,2004-09-08,95.8,>=12,13.0,144.8,19.0,56.3,Y,Y,Y,N,Y,Y
01-705-1431,CDISCPILOT01,ADSL,705,705,1431,2013-06-16,2013-06-23,2013-06-23,2013-06-23,2013-12-19,2013-12-19,2013-12-19,12.0,,PROTOCOL COMPLETED,,Completed,,180.0,Xanomeline Low Dose,Xan_Lo,1.0,54.0,54.0,9720.0,Xanomeline Low Dose,Xan_Lo,1.0,68.0,65-80,2.0,YEARS,"HISPANIC (MEXICAN - AMERICAN, MEXICO, CENTRAL AND SOUTH AMERICA)",5.0,F,24.2,<25,2010-07-04,35.4,>=12,12.0,149.9,21.0,54.4,Y,Y,Y,Y,Y,Y
01-706-1041,CDISCPILOT01,ADSL,706,900,1041,2013-12-21,2013-12-31,2013-12-31,2013-12-31,2014-07-28,2014-07-29,2014-07-29,12.0,,PROTOCOL COMPLETED,,Completed,,210.0,Placebo,Pbo,0.0,0.0,0.0,0.0,Placebo,Pbo,0.0,64.0,<65,1.0,YEARS,"AFRICAN DESCENT (NEGRO, BLACK)",2.0,F,20.9,<25,2011-11-18,25.1,>=12,15.0,167.6,20.0,58.7,Y,Y,Y,Y,Y,Y
01-706-1049,CDISCPILOT01,ADSL,706,900,1049,2013-04-30,2013-05-14,2013-05-14,2013-05-14,2013-06-18,2013-06-25,2013-06-25,7.0,Y,ADVERSE EVENT,Y,Adverse Event,,36.0,Xanomeline High Dose,Xan_Hi,2.0,81.0,69.8,2511.0,Xanomeline High Dose,Xan_Hi,2.0,60.0,<65,1.0,YEARS,CAUCASIAN,1.0,F,20.6,<25,2010-05-02,36.0,>=12,11.0,167.6,16.0,57.8,Y,Y,Y,N,N,N
01-706-1384,CDISCPILOT01,ADSL,706,900,1384,2012-08-25,2012-09-15,2012-09-15,2012-09-15,2012-09-24,2012-09-29,2012-09-29,4.0,Y,ADVERSE EVENT,Y,Adverse Event,,10.0,Xanomeline Low Dose,Xan_Lo,1.0,54.0,54.0,540.0,Xanomeline Low Dose,Xan_Lo,1.0,74.0,65-80,2.0,YEARS,CAUCASIAN,1.0,F,30.6,>=30,2008-05-04,51.7,>=12,8.0,157.5,20.0,76.0,Y,Y,Y,N,N,N
01-707-1037,CDISCPILOT01,ADSL,707,900,1037,2013-12-12,2013-12-20,2013-12-20,2013-12-20,2013-12-24,2014-01-08,2014-01-08,4.0,Y,PERSONAL CONFLICT OR OTHER PATIENT/CAREGIVER DECISION,,Withdrew Consent,,5.0,Xanomeline Low Dose,Xan_Lo,1.0,54.0,54.0,270.0,Xanomeline Low Dose,Xan_Lo,1.0,72.0,65-80,2.0,YEARS,CAUCASIAN,1.0,F,23.8,<25,2009-01-02,59.3,>=12,14.0,152.4,24.0,55.3,Y,Y,Y,N,N,N
01-707-1206,CDISCPILOT01,ADSL,707,900,1206,2013-10-20,2013-10-28,2013-10-28,2013-10-28,2014-04-26,2014-04-27,2014-04-27,12.0,,PROTOCOL COMPLETED,,Completed,,181.0,Placebo,Pbo,0.0,0.0,0.0,0.0,Placebo,Pbo,0.0,65.0,65-80,2.0,YEARS,CAUCASIAN,1.0,M,24.6,<25,2012-08-23,13.9,>=12,7.0,174.0,21.0,74.4,Y,Y,Y,Y,Y,Y
01-708-1019,CDISCPILOT01,ADSL,708,708,1019,2013-12-10,2013-12-20,2013-12-20,2013-12-20,2014-01-01,2014-01-23,2014-01-23,4.0,Y,ADVERSE EVENT,Y,Adverse Event,,13.0,Xanomeline Low Dose,Xan_Lo,1.0,54.0,54.0,702.0,Xanomeline Low Dose,Xan_Lo,1.0,68.0,65-80,2.0,YEARS,CAUCASIAN,1.0,M,22.2,<25,2006-12-19,83.7,>=12,18.0,182.9,17.0,74.4,Y,Y,Y,N,N,N
01-708-1032,CDISCPILOT01,ADSL,708,708,1032,2013-02-02,2013-02-09,2013-02-09,2013-02-09,2013-03-01,2013-03-09,2013-03-09,5.0,Y,ADVERSE EVENT,Y,Adverse Event,,21.0,Xanomeline Low Dose,Xan_Lo,1.0,54.0,54.0,1134.0,Xanomeline Low Dose,Xan_Lo,1.0,62.0,<65,1.0,YEARS,CAUCASIAN,1.0,M,26.1,25-<30,2002-07-16,126.7,>=12,12.0,177.8,18.0,82.6,Y,Y,Y,N,N,N
01-708-1084,CDISCPILOT01,ADSL,708,708,1084,2013-05-01,2013-05-09,2013-05-09,2013-05-09,2013-11-11,2013-11-11,2013-11-11,12.0,,PROTOCOL COMPLETED,,Completed,,187.0,Xanomeline Low Dose,Xan_Lo,1.0,54.0,54.0,10098.0,Xanomeline Low Dose,Xan_Lo,1.0,73.0,65-80,2.0,YEARS,CAUCASIAN,1.0,F,17.9,<25,2010-04-26,36.2,>=12,12.0,167.6,23.0,50.4,Y,Y,Y,Y,Y,Y
01-708-1087,CDISCPILOT01,ADSL,708,708,1087,2012-10-06,2012-10-22,2012-10-22,2012-10-22,2013-04-28,2013-04-28,2013-04-28,12.0,,PROTOCOL COMPLETED,,Completed,,189.0,Placebo,Pbo,0.0,0.0,0.0,0.0,Placebo,Pbo,0.0,74.0,65-80,2.0,YEARS,CAUCASIAN,1.0,F,26.9,25-<30,2008-09-02,49.1,>=12,12.0,157.5,17.0,66.7,Y,Y,Y,Y,Y,Y
01-708-1158,CDISCPILOT01,ADSL,708,708,1158,2014-02-01,2014-02-08,2014-02-08,2014-02-08,2014-03-21,2014-03-22,2014-03-22,7.0,Y,ADVERSE EVENT,Y,Adverse Event,,42.0,Placebo,Pbo,0.0,0.0,0.0,0.0,Placebo,Pbo,0.0,81.0,>80,3.0,YEARS,CAUCASIAN,1.0,F,27.8,25-<30,2010-08-01,42.1,>=12,8.0,162.6,16.0,73.5,Y,Y,Y,N,N,N
01-708-1171,CDISCPILOT01,ADSL,708,708,1171,2012-11-25,2012-12-06,2012-12-06,2012-12-06,2013-06-04,2013-06-04,2013-06-04,12.0,,PROTOCOL COMPLETED,,Completed,,181.0,Placebo,Pbo,0.0,0.0,0.0,0.0,Placebo,Pbo,0.0,77.0,65-80,2.0,YEARS,CAUCASIAN,1.0,F,20.8,<25,2010-09-24,26.1,>=12,9.0,162.6,13.0,54.9,Y,Y,Y,Y,Y,Y
01-708-1178,CDISCPILOT01,ADSL,708,708,1178,2013-12-13,2013-12-29,2013-12-29,2013-12-29,2014-04-06,2014-04-06,2014-04-06,9.0,Y,PHYSICIAN DECISION,,Physician Decision,,99.0,Xanomeline High Dose,Xan_Hi,2.0,81.0,75.3,7452.0,Xanomeline High Dose,Xan_Hi,2.0,77.0,65-80,2.0,YEARS,"AFRICAN DESCENT (NEGRO, BLACK)",2.0,F,23.0,<25,2008-08-10,64.1,>=12,8.0,165.1,10.0,62.8,Y,Y,Y,N,N,Y
01-708-1213,CDISCPILOT01,ADSL,708,708,1213,2013-02-01,2013-02-09,2013-02-09,2013-02-09,2013-02-22,2013-02-26,2013-02-26,5.0,Y,ADVERSE EVENT,Y,Adverse Event,,14.0,Xanomeline High Dose,Xan_Hi,2.0,81.0,54.0,756.0,Xanomeline High Dose,Xan_Hi,2.0,76.0,65-80,2.0,YEARS,CAUCASIAN,1.0,F,15.3,<25,2011-02-06,23.9,>=12,12.0,165.1,14.0,41.7,Y,Y,N,N,N,N
01-708-1216,CDISCPILOT01,ADSL,708,708,1216,2012-10-14,2012-10-24,2012-10-24,2012-10-24,2012-11-29,2012-12-06,2012-12-06,7.0,Y,ADVERSE EVENT,Y,Adverse Event,,37.0,Xanomeline High Dose,Xan_Hi,2.0,81.0,69.3,2565.0,Xanomeline High Dose,Xan_Hi,2.0,78.0,65-80,2.0,YEARS,CAUCASIAN,1.0,M,25.9,25-<30,2001-07-15,135.0,>=12,12.0,172.7,17.0,77.1,Y,Y,Y,N,N,N
01-708-1236,CDISCPILOT01,ADSL,708,708,1236,2013-09-08,2013-09-21,2013-09-21,2013-09-21,2013-09-21,2013-09-26,2013-09-26,4.0,Y,PERSONAL CONFLICT OR OTHER PATIENT/CAREGIVER DECISION,,Withdrew Consent,,1.0,Xanomeline High Dose,Xan_Hi,2.0,81.0,54.0,54.0,Xanomeline High Dose,Xan_Hi,2.0,86.0,>80,3.0,YEARS,CAUCASIAN,1.0,F,23.4,<25,2012-09-08,12.0,>=12,8.0,152.4,22.0,54.4,Y,Y,N,N,N,N
01-708-1253,CDISCPILOT01,ADSL,708,708,1253,2013-04-26,2013-05-07,2013-05-07,2013-05-07,2013-11-05,2013-11-05,2013-11-05,12.0,,PROTOCOL COMPLETED,,Completed,,183.0,Placebo,Pbo,0.0,0.0,0.0,0.0,Placebo,Pbo,0.0,61.0,<65,1.0,YEARS,CAUCASIAN,1.0,M,22.1,<25,2009-03-12,49.5,>=12,12.0,185.4,12.0,75.8,Y,Y,Y,Y,Y,Y
01-708-1272,CDISCPILOT01,ADSL,708,708,1272,2013-01-22,2013-02-06,2013-02-06,2013-02-06,2013-03-22,2013-04-04,2013-04-04,8.0,Y,PERSONAL CONFLICT OR OTHER PATIENT/CAREGIVER DECISION,,Withdrew Consent,,45.0,Xanomeline Low Dose,Xan_Lo,1.0,54.0,54.0,2430.0,Xanomeline Low Dose,Xan_Lo,1.0,82.0,>80,3.0,YEARS,CAUCASIAN,1.0,M,24.9,<25,2006-08-07,77.6,>=12,11.0,172.7,15.0,74.4,Y,Y,Y,N,N,Y
01-708-1286,CDISCPILOT01,ADSL,708,708,1286,2013-08-25,2013-09-10,2013-09-10,2013-09-10,2014-03-08,2014-03-08,2014-03-08,12.0,,PROTOCOL COMPLETED,,Completed,,180.0,Placebo,Pbo,0.0,0.0,0.0,0.0,Placebo,Pbo,0.0,80.0,65-80,2.0,YEARS,"AFRICAN DESCENT (NEGRO, BLACK)",2.0,F,32.8,>=30,2001-10-03,142.8,>=12,12.0,152.4,10.0,76.2,Y,Y,Y,Y,Y,Y
01-708-1296,CDISCPILOT01,ADSL,708,708,1296,2013-06-07,2013-06-14,2013-06-14,2013-06-14,2013-12-12,2013-12-12,2013-12-12,12.0,,PROTOCOL COMPLETED,,Completed,,182.0,Placebo,Pbo,0.0,0.0,0.0,0.0,Placebo,Pbo,0.0,57.0,<65,1.0,YEARS,"AFRICAN DESCENT (NEGRO, BLACK)",2.0,M,27.9,25-<30,2010-02-03,40.1,>=12,18.0,170.2,16.0,80.7,Y,Y,Y,Y,Y,Y
01-708-1297,CDISCPILOT01,ADSL,708,708,1297,2013-01-15,2013-01-25,2013-01-25,2013-01-25,2013-05-03,2013-05-08,2013-05-08,10.0,Y,ADVERSE EVENT,Y,Adverse Event,,99.0,Xanomeline Low Dose,Xan_Lo,1.0,54.0,54.0,5346.0,Xanomeline Low Dose,Xan_Lo,1.0,61.0,<65,1.0,YEARS,CAUCASIAN,1.0,M,23.0,<25,2008-02-27,58.6,>=12,13.0,185.4,23.0,78.9,Y,Y,Y,N,Y,Y
01-708-1316,CDISCPILOT01,ADSL,708,708,1316,2013-08-15,2013-08-23,2013-08-23,2013-08-23,2014-03-01,2014-03-01,2014-03-01,12.0,,PROTOCOL COMPLETED,,Completed,,191.0,Placebo,Pbo,0.0,0.0,0.0,0.0,Placebo,Pbo,0.0,74.0,65-80,2.0,YEARS,CAUCASIAN,1.0,F,23.4,<25,2011-08-08,24.3,>=12,12.0,160.0,22.0,59.9,Y,Y,Y,Y,Y,Y
01-708-1336,CDISCPILOT01,ADSL,708,708,1336,2012-11-21,2012-12-07,2012-12-07,2012-12-07,2013-06-05,2013-06-05,2013-06-05,12.0,,PROTOCOL COMPLETED,,Completed,,181.0,Xanomeline High Dose,Xan_Hi,2.0,81.0,76.7,13878.0,Xanomeline High Dose,Xan_Hi,2.0,73.0,65-80,2.0,YEARS,CAUCASIAN,1.0,M,24.1,<25,2002-12-01,119.7,>=12,18.0,190.5,15.0,87.5,Y,Y,Y,Y,Y,Y
01-708-1342,CDISCPILOT01,ADSL,708,708,1342,2012-12-21,2012-12-29,2012-12-29,2012-12-29,2013-06-28,2013-06-28,2013-06-28,12.0,,PROTOCOL COMPLETED,,Completed,,182.0,Placebo,Pbo,0.0,0.0,0.0,0.0,Placebo,Pbo,0.0,59.0,<65,1.0,YEARS,CAUCASIAN,1.0,F,20.4,<25,2010-09-24,26.9,>=12,13.0,170.2,18.0,59.0,Y,Y,Y,Y,Y,Y
01-708-1347,CDISCPILOT01,ADSL,708,708,1347,2013-04-11,2013-04-20,2013-04-20,2013-04-20,2013-06-18,2013-06-18,2013-06-18,9.0,Y,ADVERSE EVENT,Y,Adverse Event,,60.0,Xanomeline High Dose,Xan_Hi,2.0,81.0,74.3,4455.0,Xanomeline High Dose,Xan_Hi,2.0,61.0,<65,1.0,YEARS,CAUCASIAN,1.0,F,29.2,25-<30,2009-05-23,46.7,>=12,12.0,160.0,22.0,74.8,Y,Y,Y,N,N,Y
01-708-1348,CDISCPILOT01,ADSL,708,708,1348,2013-07-28,2013-08-05,2013-08-05,2013-08-05,2014-02-13,2014-02-13,2014-02-13,12.0,,PROTOCOL COMPLETED,,Completed,,193.0,Xanomeline Low Dose,Xan_Lo,1.0,54.0,54.0,10422.0,Xanomeline Low Dose,Xan_Lo,1.0,79.0,65-80,2.0,YEARS,CAUCASIAN,1.0,F,23.6,<25,2010-07-29,36.0,>=12,12.0,160.0,13.0,60.3,Y,Y,Y,Y,Y,Y
01-708-1353,CDISCPILOT01,ADSL,708,708,1353,2013-06-17,2013-07-04,2013-07-04,2013-07-04,2013-08-28,2013-09-10,2013-09-10,8.0,Y,ADVERSE EVENT,Y,Adverse Event,,56.0,Xanomeline Low Dose,Xan_Lo,1.0,54.0,54.0,3024.0,Xanomeline Low Dose,Xan_Lo,1.0,87.0,>80,3.0,YEARS,"AFRICAN DESCENT (NEGRO, BLACK)",2.0,F,20.3,<25,2010-08-06,34.4,>=12,16.0,157.5,16.0,50.4,Y,Y,Y,N,N,Y
01-708-1372,CDISCPILOT01,ADSL,708,708,1372,2013-04-03,2013-04-12,2013-04-12,2013-04-12,2013-04-19,2013-05-10,2013-05-10,4.0,Y,PROTOCOL ENTRY CRITERIA NOT MET,,I/E Not Met,,8.0,Xanomeline High Dose,Xan_Hi,2.0,81.0,54.0,432.0,Xanomeline High Dose,Xan_Hi,2.0,84.0,>80,3.0,YEARS,CAUCASIAN,1.0,M,30.7,>=30,2007-09-17,66.6,>=12,8.0,170.2,17.0,88.9,Y,Y,N,N,N,N
01-708-1378,CDISCPILOT01,ADSL,708,708,1378,2013-08-24,2013-09-03,2013-09-03,2013-09-03,2014-01-28,2014-01-28,2014-01-28,11.0,Y,SPONSOR DECISION (STUDY OR PATIENT DISCONTINUED BY THE SPONSOR),,Sponsor Decision,,148.0,Placebo,Pbo,0.0,0.0,0.0,0.0,Placebo,Pbo,0.0,67.0,65-80,2.0,YEARS,"AFRICAN DESCENT (NEGRO, BLACK)",2.0,M,24.3,<25,2009-03-16,53.3,>=12,13.0,170.2,20.0,70.3,Y,Y,Y,N,Y,Y
01-708-1406,CDISCPILOT01,ADSL,708,708,1406,2013-12-06,2013-12-26,2013-12-26,2013-12-26,2014-07-02,2014-07-02,2014-07-02,12.0,,PROTOCOL COMPLETED,,Completed,,189.0,Xanomeline High Dose,Xan_Hi,2.0,81.0,76.6,14472.0,Xanomeline High Dose,Xan_Hi,2.0,71.0,65-80,2.0,YEARS,CAUCASIAN,1.0,F,22.1,<25,2010-06-24,41.5,>=12,13.0,157.5,15.0,54.9,Y,Y,Y,Y,Y,Y
01-708-1428,CDISCPILOT01,ADSL,708,708,1428,2013-11-02,2013-11-09,2013-11-09,2013-11-09,2013-12-14,2014-01-31,2014-01-31,8.0,Y,ADVERSE EVENT,Y,Adverse Event,,36.0,Xanomeline Low Dose,Xan_Lo,1.0,54.0,54.0,1944.0,Xanomeline Low Dose,Xan_Lo,1.0,84.0,>80,3.0,YEARS,CAUCASIAN,1.0,F,23.8,<25,2010-10-27,36.2,>=12,8.0,157.5,19.0,59.0,Y,Y,Y,N,N,Y
01-709-1001,CDISCPILOT01,ADSL,709,709,1001,2013-09-20,2013-10-08,2013-10-08,2013-10-08,2014-04-08,2014-04-08,2014-04-08,12.0,,PROTOCOL COMPLETED,,Completed,,183.0,Placebo,Pbo,0.0,0.0,0.0,0.0,Placebo,Pbo,0.0,76.0,65-80,2.0,YEARS,CAUCASIAN,1.0,F,25.2,25-<30,2011-01-30,31.7,>=12,12.0,170.2,15.0,73.0,Y,Y,Y,Y,Y,Y
01-709-1007,CDISCPILOT01,ADSL,709,709,1007,2012-07-21,2012-07-31,2012-07-31,2012-07-31,2012-08-28,2012-09-01,2012-09-01,5.0,Y,ADVERSE EVENT,Y,Adverse Event,,29.0,Xanomeline Low Dose,Xan_Lo,1.0,54.0,54.0,1566.0,Xanomeline Low Dose,Xan_Lo,1.0,54.0,<65,1.0,YEARS,CAUCASIAN,1.0,F,23.8,<25,2007-02-28,64.8,>=12,21.0,158.8,10.0,59.9,Y,Y,N,N,N,N
01-709-1020,CDISCPILOT01,ADSL,709,709,1020,2012-11-22,2012-12-01,2012-12-01,2012-12-01,2013-06-01,2013-06-01,2013-06-01,12.0,,PROTOCOL COMPLETED,,Completed,,183.0,Xanomeline Low Dose,Xan_Lo,1.0,54.0,54.0,9882.0,Xanomeline Low Dose,Xan_Lo,1.0,72.0,65-80,2.0,YEARS,CAUCASIAN,1.0,F,25.9,25-<30,2009-02-26,44.9,>=12,12.0,144.8,15.0,54.4,Y,Y,Y,Y,Y,Y
01-709-1029,CDISCPILOT01,ADSL,709,709,1029,2012-12-10,2012-12-25,2012-12-25,2012-12-25,2013-06-26,2013-06-26,2013-06-26,12.0,,PROTOCOL COMPLETED,,Completed,,184.0,Xanomeline High Dose,Xan_Hi,2.0,81.0,76.6,14094.0,Xanomeline High Dose,Xan_Hi,2.0,82.0,>80,3.0,YEARS,CAUCASIAN,1.0,M,23.1,<25,2009-06-02,42.3,>=12,20.0,172.7,16.0,69.0,Y,Y,Y,Y,Y,Y
01-709-1081,CDISCPILOT01,ADSL,709,709,1081,2014-01-09,2014-01-18,2014-01-18,2014-01-18,2014-04-27,2014-05-10,2014-05-10,10.0,Y,ADVERSE EVENT,Y,Adverse Event,,100.0,Xanomeline Low Dose,Xan_Lo,1.0,54.0,54.0,5400.0,Xanomeline Low Dose,Xan_Lo,1.0,86.0,>80,3.0,YEARS,CAUCASIAN,1.0,F,23.5,<25,2011-08-06,29.2,>=12,9.0,154.9,21.0,56.5,Y,Y,Y,N,Y,Y
01-709-1088,CDISCPILOT01,ADSL,709,709,1088,2014-03-30,2014-04-12,2014-04-12,2014-04-12,2014-10-09,2014-10-09,2014-10-09,12.0,,PROTOCOL COMPLETED,,Completed,,181.0,Placebo,Pbo,0.0,0.0,0.0,0.0,Placebo,Pbo,0.0,69.0,65-80,2.0,YEARS,CAUCASIAN,1.0,M,24.8,<25,2012-02-25,25.1,>=12,16.0,179.1,23.0,79.4,Y,Y,Y,Y,Y,Y
01-709-1099,CDISCPILOT01,ADSL,709,709,1099,2013-10-14,2013-10-25,2013-10-25,2013-10-25,2014-04-25,2014-04-25,2014-04-25,12.0,,PROTOCOL COMPLETED,,Completed,,183.0,Xanomeline High Dose,Xan_Hi,2.0,81.0,76.1,13932.0,Xanomeline High Dose,Xan_Hi,2.0,79.0,65-80,2.0,YEARS,CAUCASIAN,1.0,F,19.6,<25,2009-04-20,53.8,>=12,12.0,165.1,11.0,53.5,Y,Y,Y,Y,Y,Y
01-709-1102,CDISCPILOT01,ADSL,709,709,1102,2013-01-07,2013-01-15,2013-01-15,2013-01-15,2013-03-27,2013-03-31,2013-03-31,9.0,Y,ADVERSE EVENT,Y,Adverse Event,,72.0,Xanomeline Low Dose,Xan_Lo,1.0,54.0,54.0,3888.0,Xanomeline Low Dose,Xan_Lo,1.0,71.0,65-80,2.0,YEARS,CAUCASIAN,1.0,F,32.1,>=30,2009-07-13,41.9,>=12,14.0,166.4,16.0,88.9,Y,Y,Y,N,N,Y
01-709-1168,CDISCPILOT01,ADSL,709,709,1168,2013-07-25,2013-08-02,2013-08-02,2013-08-02,2013-09-26,2013-09-27,2013-09-27,8.0,Y,ADVERSE EVENT,Y,Adverse Event,,56.0,Xanomeline High Dose,Xan_Hi,2.0,81.0,73.3,4104.0,Xanomeline High Dose,Xan_Hi,2.0,72.0,65-80,2.0,YEARS,CAUCASIAN,1.0,F,27.6,25-<30,2009-10-29,44.9,>=12,12.0,149.9,20.0,62.1,Y,Y,Y,N,N,Y
01-709-1217,CDISCPILOT01,ADSL,709,709,1217,2013-02-16,2013-03-04,2013-03-04,2013-03-04,2013-06-11,2013-06-25,2013-06-25,10.0,Y,ADVERSE EVENT,Y,Adverse Event,,100.0,Xanomeline Low Dose,Xan_Lo,1.0,54.0,54.0,5400.0,Xanomeline Low Dose,Xan_Lo,1.0,77.0,65-80,2.0,YEARS,CAUCASIAN,1.0,M,23.1,<25,2008-10-11,52.2,>=12,6.0,171.5,14.0,68.0,Y,Y,Y,N,Y,Y
01-709-1238,CDISCPILOT01,ADSL,709,709,1238,2013-05-02,2013-05-15,2013-05-15,2013-05-15,2013-08-06,2013-08-07,2013-08-07,9.0,Y,ADVERSE EVENT,Y,Adverse Event,,84.0,Xanomeline High Dose,Xan_Hi,2.0,81.0,76.2,6399.0,Xanomeline High Dose,Xan_Hi,2.0,69.0,65-80,2.0,YEARS,CAUCASIAN,1.0,M,28.5,25-<30,2011-10-13,18.7,>=12,8.0,170.2,24.0,82.6,Y,Y,Y,N,N,Y
01-709-1259,CDISCPILOT01,ADSL,709,709,1259,2013-01-13,2013-01-26,2013-01-26,2013-01-26,2013-06-13,2013-06-13,2013-06-13,11.0,Y,"LACK OF EFFICACY, PATIENT CAREGIVER PERCEPTION",,Lack of Efficacy,,139.0,Placebo,Pbo,0.0,0.0,0.0,0.0,Placebo,Pbo,0.0,82.0,>80,3.0,YEARS,CAUCASIAN,1.0,M,21.9,<25,2008-08-06,53.3,>=12,18.0,172.7,20.0,65.3,Y,Y,Y,N,Y,Y
01-709-1285,CDISCPILOT01,ADSL,709,709,1285,2013-03-17,2013-03-24,2013-03-24,2013-03-24,2013-05-23,2013-05-31,2013-05-31,9.0,Y,SPONSOR DECISION (STUDY OR PATIENT DISCONTINUED BY THE SPONSOR),,Sponsor Decision,,61.0,Xanomeline Low Dose,Xan_Lo,1.0,54.0,54.0,3294.0,Xanomeline Low Dose,Xan_Lo,1.0,87.0,>80,3.0,YEARS,CAUCASIAN,1.0,M,23.1,<25,2009-09-18,42.0,>=12,6.0,167.6,16.0,64.9,Y,Y,Y,N,N,Y
01-709-1301,CDISCPILOT01,ADSL,709,709,1301,2013-07-14,2013-07-19,2013-07-19,2013-07-19,2014-01-17,2014-01-17,2014-01-17,12.0,,PROTOCOL COMPLETED,,Completed,,183.0,Placebo,Pbo,0.0,0.0,0.0,0.0,Placebo,Pbo,0.0,62.0,<65,1.0,YEARS,CAUCASIAN,1.0,F,23.6,<25,2009-02-04,53.3,>=12,10.0,146.1,10.0,50.4,Y,Y,Y,Y,Y,Y
01-709-1306,CDISCPILOT01,ADSL,709,709,1306,2014-01-19,2014-02-03,2014-02-03,2014-02-03,2014-06-16,2014-06-25,2014-06-25,11.0,Y,ADVERSE EVENT,Y,Adverse Event,,134.0,Placebo,Pbo,0.0,0.0,0.0,0.0,Placebo,Pbo,0.0,60.0,<65,1.0,YEARS,CAUCASIAN,1.0,F,18.5,<25,2009-02-02,59.6,>=12,12.0,154.9,21.0,44.5,Y,Y,Y,N,Y,Y
01-709-1309,CDISCPILOT01,ADSL,709,709,1309,2013-06-09,2013-06-19,2013-06-19,2013-06-19,2013-12-19,2013-12-19,2013-12-19,12.0,,PROTOCOL COMPLETED,,Completed,,184.0,Xanomeline High Dose,Xan_Hi,2.0,81.0,77.0,14175.0,Xanomeline High Dose,Xan_Hi,2.0,65.0,65-80,2.0,YEARS,CAUCASIAN,1.0,M,24.8,<25,2009-12-21,41.6,>=12,16.0,177.8,17.0,78.5,Y,Y,Y,Y,Y,Y
01-709-1312,CDISCPILOT01,ADSL,709,709,1312,2014-04-13,2014-04-20,2014-04-20,2014-04-20,2014-10-19,2014-10-19,2014-10-19,12.0,,PROTOCOL COMPLETED,,Completed,,183.0,Placebo,Pbo,0.0,0.0,0.0,0.0,Placebo,Pbo,0.0,68.0,65-80,2.0,YEARS,CAUCASIAN,1.0,F,20.9,<25,2010-07-30,44.5,>=12,13.0,160.0,14.0,53.5,Y,Y,Y,Y,Y,Y
01-709-1326,CDISCPILOT01,ADSL,709,709,1326,2013-03-21,2013-04-05,2013-04-05,2013-04-05,2013-10-02,2013-10-02,2013-10-02,12.0,,PROTOCOL COMPLETED,,Completed,,181.0,Xanomeline Low Dose,Xan_Lo,1.0,54.0,54.0,9774.0,Xanomeline Low Dose,Xan_Lo,1.0,75.0,65-80,2.0,YEARS,CAUCASIAN,1.0,F,28.7,25-<30,2010-09-19,30.1,>=12,16.0,161.3,11.0,74.8,Y,Y,Y,Y,Y,Y
01-709-1329,CDISCPILOT01,ADSL,709,709,1329,2013-08-01,2013-08-15,2013-08-15,2013-08-15,2013-08-25,2013-08-29,2013-08-29,4.0,Y,PERSONAL CONFLICT OR OTHER PATIENT/CAREGIVER DECISION,,Withdrew Consent,,11.0,Xanomeline High Dose,Xan_Hi,2.0,81.0,54.0,594.0,Xanomeline High Dose,Xan_Hi,2.0,70.0,65-80,2.0,YEARS,CAUCASIAN,1.0,M,26.5,25-<30,2009-03-08,52.8,>=12,16.0,170.2,10.0,76.7,Y,Y,Y,N,N,N
01-709-1339,CDISCPILOT01,ADSL,709,709,1339,2012-12-15,2012-12-23,2012-12-23,2012-12-23,2013-06-24,2013-06-24,2013-06-24,12.0,,PROTOCOL COMPLETED,,Completed,,184.0,Placebo,Pbo,0.0,0.0,0.0,0.0,Placebo,Pbo,0.0,81.0,>80,3.0,YEARS,CAUCASIAN,1.0,M,25.4,25-<30,2010-03-03,33.5,>=12,16.0,175.3,23.0,78.0,Y,Y,Y,Y,Y,Y
01-709-1424,CDISCPILOT01,ADSL,709,709,1424,2013-02-15,2013-03-03,2013-03-03,2013-03-03,2013-03-07,2013-03-08,2013-03-08,4.0,Y,ADVERSE EVENT,Y,Adverse Event,,5.0,Xanomeline High Dose,Xan_Hi,2.0,81.0,54.0,270.0,Xanomeline High Dose,Xan_Hi,2.0,77.0,65-80,2.0,YEARS,CAUCASIAN,1.0,M,22.6,<25,2007-09-12,65.2,>=12,16.0,174.0,18.0,68.5,Y,Y,Y,N,N,N
01-710-1002,CDISCPILOT01,ADSL,710,710,1002,2013-12-30,2014-01-14,2014-01-14,2014-01-14,2014-01-18,2014-01-18,2014-01-18,4.0,Y,ADVERSE EVENT,Y,Adverse Event,,5.0,Xanomeline Low Dose,Xan_Lo,1.0,54.0,54.0,270.0,Xanomeline Low Dose,Xan_Lo,1.0,88.0,>80,3.0,YEARS,CAUCASIAN,1.0,M,25.8,25-<30,2008-01-08,71.8,>=12,12.0,165.1,17.0,70.3,Y,Y,Y,N,N,N
01-710-1006,CDISCPILOT01,ADSL,710,710,1006,2013-01-27,2013-02-10,2013-02-10,2013-02-10,2013-08-09,2013-08-10,2013-08-10,12.0,,PROTOCOL COMPLETED,,Completed,,181.0,Xanomeline High Dose,Xan_Hi,2.0,81.0,77.1,13959.0,Xanomeline High Dose,Xan_Hi,2.0,77.0,65-80,2.0,YEARS,CAUCASIAN,1.0,M,25.1,25-<30,2012-02-10,11.6,<12,12.0,170.2,12.0,72.6,Y,Y,Y,Y,Y,Y
01-710-1021,CDISCPILOT01,ADSL,710,710,1021,2013-09-19,2013-09-27,2013-09-27,2013-09-27,2013-10-29,2013-11-12,2013-11-12,7.0,Y,ADVERSE EVENT,Y,Adverse Event,,33.0,Xanomeline High Dose,Xan_Hi,2.0,81.0,68.7,2268.0,Xanomeline High Dose,Xan_Hi,2.0,79.0,65-80,2.0,YEARS,"AFRICAN DESCENT (NEGRO, BLACK)",2.0,M,21.3,<25,2012-07-09,14.4,>=12,8.0,162.6,11.0,56.3,Y,Y,N,N,N,N
01-710-1027,CDISCPILOT01,ADSL,710,710,1027,2014-02-03,2014-02-28,2014-02-28,2014-02-28,2014-08-29,2014-08-29,2014-08-29,12.0,,PROTOCOL COMPLETED,,Completed,,183.0,Placebo,Pbo,0.0,0.0,0.0,0.0,Placebo,Pbo,0.0,83.0,>80,3.0,YEARS,CAUCASIAN,1.0,M,24.4,<25,2012-02-04,24.0,>=12,12.0,170.2,20.0,70.8,Y,Y,Y,Y,Y,Y
01-710-1045,CDISCPILOT01,ADSL,710,710,1045,2013-05-20,2013-06-03,2013-06-03,2013-06-03,2013-08-13,2013-08-17,2013-08-17,9.0,Y,ADVERSE EVENT,Y,Adverse Event,,72.0,Xanomeline Low Dose,Xan_Lo,1.0,54.0,54.0,3888.0,Xanomeline Low Dose,Xan_Lo,1.0,83.0,>80,3.0,YEARS,CAUCASIAN,1.0,F,22.0,<25,2010-05-12,36.3,>=12,12.0,162.6,14.0,58.1,Y,Y,Y,N,N,Y
01-710-1053,CDISCPILOT01,ADSL,710,710,1053,2012-12-15,2012-12-26,2012-12-26,2012-12-26,2013-02-10,2013-02-15,2013-02-15,8.0,Y,ADVERSE EVENT,Y,Adverse Event,,47.0,Xanomeline Low Dose,Xan_Lo,1.0,54.0,54.0,2538.0,Xanomeline Low Dose,Xan_Lo,1.0,84.0,>80,3.0,YEARS,CAUCASIAN,1.0,F,20.8,<25,2011-11-04,13.4,>=12,12.0,157.5,20.0,51.7,Y,Y,Y,N,N,Y
01-710-1060,CDISCPILOT01,ADSL,710,710,1060,2012-12-24,2013-01-01,2013-01-01,2013-01-01,2013-07-05,2013-07-05,2013-07-05,12.0,,PROTOCOL COMPLETED,,Completed,,186.0,Placebo,Pbo,0.0,0.0,0.0,0.0,Placebo,Pbo,0.0,82.0,>80,3.0,YEARS,CAUCASIAN,1.0,M,21.0,<25,2010-09-14,27.4,>=12,16.0,182.9,23.0,70.3,Y,Y,Y,Y,Y,Y
01-710-1070,CDISCPILOT01,ADSL,710,710,1070,2012-08-28,2012-09-08,2012-09-08,2012-09-08,2013-01-22,2013-02-23,2013-02-23,11.0,Y,ADVERSE EVENT,Y,Adverse Event,,137.0,Xanomeline High Dose,Xan_Hi,2.0,81.0,78.0,10692.0,Xanomeline High Dose,Xan_Hi,2.0,85.0,>80,3.0,YEARS,CAUCASIAN,1.0,F,21.8,<25,2010-09-08,23.7,>=12,10.0,149.9,10.0,49.0,Y,Y,Y,N,Y,Y
01-710-1077,CDISCPILOT01,ADSL,710,710,1077,2013-11-03,2013-11-17,2013-11-17,2013-11-17,2014-05-18,2014-05-18,2014-05-18,12.0,,PROTOCOL COMPLETED,,Completed,,183.0,Placebo,Pbo,0.0,0.0,0.0,0.0,Placebo,Pbo,0.0,76.0,65-80,2.0,YEARS,CAUCASIAN,1.0,F,18.5,<25,2011-06-11,28.8,>=12,12.0,162.6,14.0,49.0,Y,Y,Y,Y,Y,Y
01-710-1078,CDISCPILOT01,ADSL,710,710,1078,2013-09-06,2013-09-17,2013-09-17,2013-09-17,2014-03-23,2014-03-23,2014-03-23,12.0,,PROTOCOL COMPLETED,,Completed,,188.0,Placebo,Pbo,0.0,0.0,0.0,0.0,Placebo,Pbo,0.0,81.0,>80,3.0,YEARS,CAUCASIAN,1.0,F,18.0,<25,2011-08-25,24.4,>=12,12.0,152.4,21.0,41.7,Y,Y,Y,Y,Y,Y
01-710-1083,CDISCPILOT01,ADSL,710,710,1083,2013-07-09,2013-07-22,2013-07-22,2013-07-22,2013-08-01,2013-08-03,2013-08-03,4.0,Y,DEATH,,Death,Y,11.0,Placebo,Pbo,0.0,0.0,0.0,0.0,Placebo,Pbo,0.0,89.0,>80,3.0,YEARS,CAUCASIAN,1.0,F,19.0,<25,2011-07-19,23.7,>=12,14.0,157.5,14.0,47.2,Y,Y,N,N,N,N
01-710-1137,CDISCPILOT01,ADSL,710,710,1137,2013-10-03,2013-10-11,2013-10-11,2013-10-11,2013-11-13,2013-11-13,2013-11-13,7.0,Y,ADVERSE EVENT,Y,Adverse Event,,34.0,Xanomeline High Dose,Xan_Hi,2.0,81.0,69.1,2349.0,Xanomeline High Dose,Xan_Hi,2.0,79.0,65-80,2.0,YEARS,"AFRICAN DESCENT (NEGRO, BLACK)",2.0,F,24.0,<25,2009-10-12,47.7,>=12,16.0,165.1,18.0,65.3,Y,Y,N,N,N,N
01-710-1142,CDISCPILOT01,ADSL,710,710,1142,2012-09-12,2012-10-02,2012-10-02,2012-10-02,2012-10-20,2012-10-23,2012-10-23,5.0,Y,ADVERSE EVENT,Y,Adverse Event,,19.0,Xanomeline High Dose,Xan_Hi,2.0,81.0,59.7,1134.0,Xanomeline High Dose,Xan_Hi,2.0,76.0,65-80,2.0,YEARS,CAUCASIAN,1.0,F,24.8,<25,2010-09-26,23.6,>=12,12.0,152.4,23.0,57.6,Y,Y,Y,N,N,N
01-710-1154,CDISCPILOT01,ADSL,710,710,1154,2014-03-08,2014-03-29,2014-03-29,2014-03-29,2014-04-27,2014-05-09,2014-05-09,7.0,Y,ADVERSE EVENT,Y,Adverse Event,,30.0,Xanomeline Low Dose,Xan_Lo,1.0,54.0,54.0,1620.0,Xanomeline Low Dose,Xan_Lo,1.0,84.0,>80,3.0,YEARS,"HISPANIC (MEXICAN - AMERICAN, MEXICO, CENTRAL AND SOUTH AMERICA)",5.0,M,32.3,>=30,2008-02-25,72.4,>=12,3.0,160.0,13.0,82.6,Y,Y,Y,N,N,N
01-710-1166,CDISCPILOT01,ADSL,710,710,1166,2012-11-10,2012-11-30,2012-11-30,2012-11-30,2013-03-19,2013-03-30,2013-03-30,10.0,Y,ADVERSE EVENT,Y,Adverse Event,,110.0,Xanomeline Low Dose,Xan_Lo,1.0,54.0,54.0,5940.0,Xanomeline Low Dose,Xan_Lo,1.0,81.0,>80,3.0,YEARS,CAUCASIAN,1.0,F,22.1,<25,2007-11-10,60.1,>=12,12.0,157.5,18.0,54.9,Y,Y,Y,N,Y,Y
01-710-1183,CDISCPILOT01,ADSL,710,710,1183,2013-10-24,2013-11-16,2013-11-16,2013-11-16,2014-05-17,2014-05-17,2014-05-17,12.0,,PROTOCOL COMPLETED,,Completed,,183.0,Placebo,Pbo,0.0,0.0,0.0,0.0,Placebo,Pbo,0.0,80.0,65-80,2.0,YEARS,CAUCASIAN,1.0,F,21.2,<25,2012-10-25,12.0,>=12,8.0,149.9,16.0,47.6,Y,Y,Y,Y,Y,Y
01-710-1187,CDISCPILOT01,ADSL,710,710,1187,2012-10-26,2012-11-10,2012-11-10,2012-11-10,2013-05-12,2013-05-12,2013-05-12,12.0,,PROTOCOL COMPLETED,,Completed,,184.0,Xanomeline High Dose,Xan_Hi,2.0,81.0,76.7,14121.0,Xanomeline High Dose,Xan_Hi,2.0,78.0,65-80,2.0,YEARS,CAUCASIAN,1.0,F,20.8,<25,2010-10-22,24.2,>=12,8.0,154.9,11.0,49.9,Y,Y,Y,Y,Y,Y
01-710-1235,CDISCPILOT01,ADSL,710,710,1235,2012-09-13,2012-09-26,2012-09-26,2012-09-26,2013-03-27,2013-03-27,2013-03-27,12.0,,PROTOCOL COMPLETED,,Completed,,183.0,Xanomeline Low Dose,Xan_Lo,1.0,54.0,54.0,9882.0,Xanomeline Low Dose,Xan_Lo,1.0,56.0,<65,1.0,YEARS,"HISPANIC (MEXICAN - AMERICAN, MEXICO, CENTRAL AND SOUTH AMERICA)",5.0,F,33.0,>=30,2009-12-03,33.4,>=12,16.0,170.2,20.0,95.7,Y,Y,Y,Y,Y,Y
01-710-1249,CDISCPILOT01,ADSL,710,710,1249,2013-12-19,2013-12-28,2013-12-28,2013-12-28,2014-06-28,2014-06-28,2014-06-28,12.0,,PROTOCOL COMPLETED,,Completed,,183.0,Xanomeline High Dose,Xan_Hi,2.0,81.0,76.7,14040.0,Xanomeline High Dose,Xan_Hi,2.0,79.0,65-80,2.0,YEARS,CAUCASIAN,1.0,M,25.4,25-<30,2008-12-27,59.8,>=12,12.0,177.8,20.0,80.3,Y,Y,Y,Y,Y,Y
01-710-1264,CDISCPILOT01,ADSL,710,710,1264,2013-06-02,2013-06-13,2013-06-13,2013-06-13,2013-10-11,2013-10-12,2013-10-12,11.0,Y,ADVERSE EVENT,Y,Adverse Event,,121.0,Placebo,Pbo,0.0,0.0,0.0,0.0,Placebo,Pbo,0.0,78.0,65-80,2.0,YEARS,CAUCASIAN,1.0,M,29.1,25-<30,2010-06-06,35.9,>=12,12.0,167.6,14.0,81.7,Y,Y,Y,N,Y,Y
01-710-1270,CDISCPILOT01,ADSL,710,710,1270,2014-02-01,2014-02-12,2014-02-12,2014-02-12,2014-03-01,2014-03-01,2014-03-01,4.0,Y,ADVERSE EVENT,Y,Adverse Event,,18.0,Xanomeline Low Dose,Xan_Lo,1.0,54.0,54.0,972.0,Xanomeline Low Dose,Xan_Lo,1.0,83.0,>80,3.0,YEARS,CAUCASIAN,1.0,F,25.6,25-<30,2012-06-19,19.5,>=12,12.0,149.9,11.0,57.6,Y,Y,Y,N,N,N
01-710-1271,CDISCPILOT01,ADSL,710,710,1271,2012-09-04,2012-09-27,2012-09-27,2012-09-27,2012-11-21,2012-12-02,2012-12-02,8.0,Y,ADVERSE EVENT,Y,Adverse Event,,56.0,Placebo,Pbo,0.0,0.0,0.0,0.0,Placebo,Pbo,0.0,86.0,>80,3.0,YEARS,CAUCASIAN,1.0,F,21.2,<25,2011-09-05,12.0,>=12,16.0,149.9,18.0,47.6,Y,Y,N,N,N,Y
01-710-1278,CDISCPILOT01,ADSL,710,710,1278,2012-12-13,2012-12-24,2012-12-24,2012-12-24,2013-02-26,2013-03-03,2013-03-03,9.0,Y,ADVERSE EVENT,Y,Adverse Event,,65.0,Xanomeline High Dose,Xan_Hi,2.0,81.0,74.8,4860.0,Xanomeline High Dose,Xan_Hi,2.0,81.0,>80,3.0,YEARS,CAUCASIAN,1.0,M,22.7,<25,2011-12-08,12.2,>=12,20.0,177.8,14.0,71.7,Y,Y,Y,N,N,Y
01-710-1300,CDISCPILOT01,ADSL,710,710,1300,2012-12-04,2012-12-15,2012-12-15,2012-12-15,2013-02-15,2013-02-19,2013-02-19,9.0,Y,ADVERSE EVENT,Y,Adverse Event,,63.0,Xanomeline Low Dose,Xan_Lo,1.0,54.0,54.0,3402.0,Xanomeline Low Dose,Xan_Lo,1.0,78.0,65-80,2.0,YEARS,CAUCASIAN,1.0,F,20.1,<25,2011-11-16,12.6,>=12,12.0,152.4,13.0,46.7,Y,Y,Y,N,N,Y
01-710-1314,CDISCPILOT01,ADSL,710,710,1314,2013-04-21,2013-04-24,2013-04-24,2013-04-24,2013-05-23,2013-05-25,2013-05-25,6.0,Y,PERSONAL CONFLICT OR OTHER PATIENT/CAREGIVER DECISION,,Withdrew Consent,,30.0,Placebo,Pbo,0.0,0.0,0.0,0.0,Placebo,Pbo,0.0,78.0,65-80,2.0,YEARS,CAUCASIAN,1.0,F,22.6,<25,2011-04-14,24.3,>=12,12.0,137.2,12.0,42.6,Y,Y,N,N,N,N
01-710-1315,CDISCPILOT01,ADSL,710,710,1315,2013-02-12,2013-02-27,2013-02-27,2013-02-27,2013-07-06,2013-07-16,2013-07-16,11.0,Y,ADVERSE EVENT,Y,Adverse Event,,130.0,Placebo,Pbo,0.0,0.0,0.0,0.0,Placebo,Pbo,0.0,83.0,>80,3.0,YEARS,CAUCASIAN,1.0,F,24.2,<25,2011-08-20,17.8,>=12,12.0,152.4,12.0,56.3,Y,Y,Y,N,Y,Y
01-710-1354,CDISCPILOT01,ADSL,710,710,1354,2012-10-29,2012-11-11,2012-11-11,2012-11-11,2013-05-01,2013-05-01,2013-05-01,12.0,,PROTOCOL COMPLETED,,Completed,,172.0,Xanomeline High Dose,Xan_Hi,2.0,81.0,77.1,13257.0,Xanomeline High Dose,Xan_Hi,2.0,73.0,65-80,2.0,YEARS,CAUCASIAN,1.0,M,26.7,25-<30,2011-11-06,11.8,<12,16.0,182.9,23.0,89.4,Y,Y,Y,Y,Y,Y
01-710-1358,CDISCPILOT01,ADSL,710,710,1358,2012-09-02,2012-09-17,2012-09-17,2012-09-17,2013-02-09,2013-03-12,2013-03-12,12.0,Y,PERSONAL CONFLICT OR OTHER PATIENT/CAREGIVER DECISION,,Withdrew Consent,,146.0,Xanomeline Low Dose,Xan_Lo,1.0,54.0,54.0,7884.0,Xanomeline Low Dose,Xan_Lo,1.0,82.0,>80,3.0,YEARS,CAUCASIAN,1.0,M,31.1,>=30,2009-08-29,36.2,>=12,6.0,162.6,13.0,82.1,Y,Y,Y,Y,Y,Y
01-710-1368,CDISCPILOT01,ADSL,710,710,1368,2013-10-21,2013-10-23,2013-10-23,2013-10-23,2014-04-24,2014-04-24,2014-04-24,12.0,,PROTOCOL COMPLETED,,Completed,,184.0,Placebo,Pbo,0.0,0.0,0.0,0.0,Placebo,Pbo,0.0,88.0,>80,3.0,YEARS,CAUCASIAN,1.0,F,15.7,<25,2011-10-12,24.3,>=12,12.0,147.3,13.0,34.0,Y,Y,Y,Y,Y,Y
01-710-1385,CDISCPILOT01,ADSL,710,710,1385,2012-10-21,2012-10-29,2012-10-29,2012-10-29,2013-02-18,2013-02-18,2013-02-18,10.0,Y,ADVERSE EVENT,Y,Adverse Event,,113.0,Xanomeline Low Dose,Xan_Lo,1.0,54.0,54.0,6102.0,Xanomeline Low Dose,Xan_Lo,1.0,77.0,65-80,2.0,YEARS,CAUCASIAN,1.0,M,25.2,25-<30,2011-10-28,11.8,<12,18.0,182.9,14.0,84.4,Y,Y,Y,N,Y,Y
01-710-1408,CDISCPILOT01,ADSL,710,710,1408,2012-12-26,2013-01-05,2013-01-05,2013-01-05,2013-07-12,2013-07-12,2013-07-12,12.0,,PROTOCOL COMPLETED,,Completed,,189.0,Xanomeline High Dose,Xan_Hi,2.0,81.0,76.1,14391.0,Xanomeline High Dose,Xan_Hi,2.0,80.0,65-80,2.0,YEARS,CAUCASIAN,1.0,M,34.2,>=30,2007-12-14,60.5,>=12,12.0,177.8,23.0,108.0,Y,Y,Y,Y,Y,Y
01-711-1012,CDISCPILOT01,ADSL,711,900,1012,2013-03-20,2013-04-03,2013-04-03,2013-04-03,2013-04-29,2013-05-02,2013-05-02,5.0,Y,ADVERSE EVENT,Y,Adverse Event,,27.0,Xanomeline High Dose,Xan_Hi,2.0,81.0,66.0,1782.0,Xanomeline High Dose,Xan_Hi,2.0,67.0,65-80,2.0,YEARS,CAUCASIAN,1.0,F,28.0,25-<30,2011-07-25,19.9,>=12,12.0,170.2,18.0,81.0,Y,Y,Y,N,N,N
01-711-1036,CDISCPILOT01,ADSL,711,900,1036,2012-07-20,2012-07-29,2012-07-29,2012-07-29,2013-02-10,2013-02-10,2013-02-10,12.0,,PROTOCOL COMPLETED,,Completed,,197.0,Placebo,Pbo,0.0,0.0,0.0,0.0,Placebo,Pbo,0.0,70.0,65-80,2.0,YEARS,"AFRICAN DESCENT (NEGRO, BLACK)",2.0,M,23.4,<25,2009-03-05,40.5,>=12,9.0,172.0,23.0,69.2,Y,Y,Y,Y,Y,Y
01-711-1143,CDISCPILOT01,ADSL,711,900,1143,2013-03-30,2013-04-03,2013-04-03,2013-04-03,2013-05-30,2013-06-01,2013-06-01,9.0,Y,ADVERSE EVENT,Y,Adverse Event,,58.0,Xanomeline Low Dose,Xan_Lo,1.0,54.0,54.0,3132.0,Xanomeline Low Dose,Xan_Lo,1.0,76.0,65-80,2.0,YEARS,CAUCASIAN,1.0,F,24.3,<25,2011-04-29,23.1,>=12,12.0,163.1,23.0,64.6,Y,Y,Y,N,N,Y
01-711-1433,CDISCPILOT01,ADSL,711,900,1433,2013-01-23,2013-01-27,2013-01-27,2013-01-27,2013-02-05,2013-02-06,2013-02-06,4.0,Y,ADVERSE EVENT,Y,Adverse Event,,10.0,Xanomeline High Dose,Xan_Hi,2.0,81.0,54.0,540.0,Xanomeline High Dose,Xan_Hi,2.0,84.0,>80,3.0,YEARS,CAUCASIAN,1.0,F,20.9,<25,2012-02-02,11.7,<12,12.0,157.5,18.0,51.9,Y,Y,N,N,N,N
01-713-1043,CDISCPILOT01,ADSL,713,713,1043,2013-08-17,2013-09-15,2013-09-15,2013-09-15,2014-03-24,2014-03-24,2014-03-24,12.0,,PROTOCOL COMPLETED,,Completed,,191.0,Xanomeline Low Dose,Xan_Lo,1.0,54.0,54.0,10314.0,Xanomeline Low Dose,Xan_Lo,1.0,78.0,65-80,2.0,YEARS,CAUCASIAN,1.0,F,18.8,<25,2011-12-09,20.3,>=12,8.0,165.1,16.0,51.3,Y,Y,Y,Y,Y,Y
01-713-1073,CDISCPILOT01,ADSL,713,713,1073,2014-03-15,2014-03-30,2014-03-30,2014-03-30,2014-10-05,2014-10-05,2014-10-05,12.0,,PROTOCOL COMPLETED,,Completed,,190.0,Xanomeline Low Dose,Xan_Lo,1.0,54.0,54.0,10260.0,Xanomeline Low Dose,Xan_Lo,1.0,74.0,65-80,2.0,YEARS,"AFRICAN DESCENT (NEGRO, BLACK)",2.0,F,20.3,<25,2013-02-19,12.8,>=12,6.0,167.6,11.0,56.9,Y,Y,Y,Y,Y,Y
01-713-1106,CDISCPILOT01,ADSL,713,713,1106,2012-10-03,2012-10-31,2012-10-31,2012-10-31,2013-05-06,2013-05-06,2013-05-06,12.0,,PROTOCOL COMPLETED,,Completed,,188.0,Xanomeline High Dose,Xan_Hi,2.0,81.0,76.7,14418.0,Xanomeline High Dose,Xan_Hi,2.0,74.0,65-80,2.0,YEARS,CAUCASIAN,1.0,M,19.6,<25,2010-01-16,32.6,>=12,16.0,164.8,23.0,53.1,Y,Y,Y,Y,Y,Y
01-713-1141,CDISCPILOT01,ADSL,713,713,1141,2013-05-23,2013-05-31,2013-05-31,2013-05-31,2013-07-01,2013-08-06,2013-08-06,7.0,Y,ADVERSE EVENT,Y,Adverse Event,,32.0,Xanomeline High Dose,Xan_Hi,2.0,81.0,68.3,2187.0,Xanomeline High Dose,Xan_Hi,2.0,79.0,65-80,2.0,YEARS,CAUCASIAN,1.0,M,23.5,<25,2006-11-24,78.0,>=12,13.0,170.0,18.0,68.0,Y,Y,N,N,N,N
01-713-1179,CDISCPILOT01,ADSL,713,713,1179,2013-07-11,2013-08-09,2013-08-09,2013-08-09,2014-02-05,2014-02-05,2014-02-05,12.0,,PROTOCOL COMPLETED,,Completed,,181.0,Placebo,Pbo,0.0,0.0,0.0,0.0,Placebo,Pbo,0.0,64.0,<65,1.0,YEARS,CAUCASIAN,1.0,F,20.3,<25,2011-05-04,26.3,>=12,12.0,165.1,21.0,55.3,Y,Y,Y,Y,Y,Y
01-713-1209,CDISCPILOT01,ADSL,713,713,1209,2013-05-16,2013-05-27,2013-05-27,2013-05-27,2013-11-22,2013-11-22,2013-11-22,12.0,,PROTOCOL COMPLETED,,Completed,,180.0,Xanomeline High Dose,Xan_Hi,2.0,81.0,77.0,13851.0,Xanomeline High Dose,Xan_Hi,2.0,77.0,65-80,2.0,YEARS,CAUCASIAN,1.0,F,19.2,<25,2010-07-14,34.1,>=12,12.0,165.1,23.0,52.2,Y,Y,Y,Y,Y,Y
01-713-1256,CDISCPILOT01,ADSL,713,713,1256,2012-09-10,2012-09-19,2012-09-19,2012-09-19,2013-03-25,2013-03-25,2013-03-25,12.0,,PROTOCOL COMPLETED,,Completed,,188.0,Placebo,Pbo,0.0,0.0,0.0,0.0,Placebo,Pbo,0.0,71.0,65-80,2.0,YEARS,CAUCASIAN,1.0,M,23.7,<25,2009-02-08,43.1,>=12,16.0,180.3,13.0,77.1,Y,Y,Y,Y,Y,Y
01-713-1269,CDISCPILOT01,ADSL,713,713,1269,2014-01-14,2014-01-27,2014-01-27,2014-01-27,2014-07-28,2014-07-28,2014-07-28,12.0,,PROTOCOL COMPLETED,,Completed,,183.0,Placebo,Pbo,0.0,0.0,0.0,0.0,Placebo,Pbo,0.0,73.0,65-80,2.0,YEARS,CAUCASIAN,1.0,M,21.9,<25,2012-03-21,21.8,>=12,16.0,185.4,23.0,75.3,Y,Y,Y,Y,Y,Y
01-713-1448,CDISCPILOT01,ADSL,713,713,1448,2014-01-05,2014-01-19,2014-01-19,2014-01-19,2014-05-16,2014-05-17,2014-05-17,10.0,Y,ADVERSE EVENT,Y,Adverse Event,,118.0,Xanomeline Low Dose,Xan_Lo,1.0,54.0,54.0,6372.0,Xanomeline Low Dose,Xan_Lo,1.0,71.0,65-80,2.0,YEARS,CAUCASIAN,1.0,F,25.5,25-<30,2008-04-09,68.9,>=12,13.0,175.3,23.0,78.5,Y,Y,Y,N,Y,Y
01-714-1035,CDISCPILOT01,ADSL,714,900,1035,2014-04-03,2014-04-17,2014-04-17,2014-04-17,2014-10-16,2014-10-16,2014-10-16,12.0,,PROTOCOL COMPLETED,,Completed,,183.0,Placebo,Pbo,0.0,0.0,0.0,0.0,Placebo,Pbo,0.0,88.0,>80,3.0,YEARS,CAUCASIAN,1.0,F,24.6,<25,2011-04-02,36.1,>=12,12.0,148.6,17.0,54.4,Y,Y,Y,Y,Y,Y
01-714-1068,CDISCPILOT01,ADSL,714,900,1068,2013-07-31,2013-08-08,2013-08-08,2013-08-08,2013-10-08,2013-10-16,2013-10-16,9.0,Y,ADVERSE EVENT,Y,Adverse Event,,62.0,Xanomeline Low Dose,Xan_Lo,1.0,54.0,54.0,3348.0,Xanomeline Low Dose,Xan_Lo,1.0,79.0,65-80,2.0,YEARS,CAUCASIAN,1.0,F,23.0,<25,2012-07-24,12.3,>=12,9.0,153.7,18.0,54.4,Y,Y,Y,N,N,Y
01-714-1195,CDISCPILOT01,ADSL,714,900,1195,2013-04-16,2013-04-26,2013-04-26,2013-04-26,2013-10-23,2013-10-23,2013-10-23,12.0,,PROTOCOL COMPLETED,,Completed,,181.0,Xanomeline Low Dose,Xan_Lo,1.0,54.0,54.0,9774.0,Xanomeline Low Dose,Xan_Lo,1.0,75.0,65-80,2.0,YEARS,CAUCASIAN,1.0,M,28.7,25-<30,2011-04-30,23.6,>=12,16.0,172.7,19.0,85.7,Y,Y,Y,Y,Y,Y
01-714-1288,CDISCPILOT01,ADSL,714,900,1288,2013-11-24,2013-12-04,2013-12-04,2013-12-04,2014-06-17,2014-06-17,2014-06-17,12.0,,PROTOCOL COMPLETED,,Completed,,196.0,Xanomeline High Dose,Xan_Hi,2.0,81.0,76.2,14931.0,Xanomeline High Dose,Xan_Hi,2.0,77.0,65-80,2.0,YEARS,"AFRICAN DESCENT (NEGRO, BLACK)",2.0,M,18.7,<25,2009-11-11,48.5,>=12,6.0,162.6,19.0,49.4,Y,Y,Y,Y,Y,Y
01-714-1375,CDISCPILOT01,ADSL,714,900,1375,2013-02-23,2013-02-26,2013-02-26,2013-02-26,2013-09-07,2013-09-07,2013-09-07,12.0,,PROTOCOL COMPLETED,,Completed,,194.0,Placebo,Pbo,0.0,0.0,0.0,0.0,Placebo,Pbo,0.0,78.0,65-80,2.0,YEARS,CAUCASIAN,1.0,F,25.6,25-<30,2008-02-10,60.5,>=12,10.0,149.9,17.0,57.6,Y,Y,Y,Y,Y,Y
01-714-1425,CDISCPILOT01,ADSL,714,900,1425,2013-08-11,2013-08-15,2013-08-15,2013-08-15,2013-08-19,2013-08-22,2013-08-22,4.0,Y,SPONSOR DECISION (STUDY OR PATIENT DISCONTINUED BY THE SPONSOR),,Sponsor Decision,,5.0,Xanomeline High Dose,Xan_Hi,2.0,81.0,54.0,270.0,Xanomeline High Dose,Xan_Hi,2.0,81.0,>80,3.0,YEARS,CAUCASIAN,1.0,M,29.0,25-<30,2010-07-30,36.4,>=12,16.0,177.8,22.0,91.6,Y,Y,Y,N,N,N
01-715-1085,CDISCPILOT01,ADSL,715,900,1085,2013-02-03,2013-02-16,2013-02-16,2013-02-16,2013-08-18,2013-08-18,2013-08-18,12.0,,PROTOCOL COMPLETED,,Completed,,184.0,Xanomeline Low Dose,Xan_Lo,1.0,54.0,54.0,9936.0,Xanomeline Low Dose,Xan_Lo,1.0,77.0,65-80,2.0,YEARS,CAUCASIAN,1.0,F,21.8,<25,2010-08-02,30.1,>=12,14.0,162.6,23.0,57.6,Y,Y,Y,Y,Y,Y
01-715-1107,CDISCPILOT01,ADSL,715,900,1107,2013-02-12,2013-02-26,2013-02-26,2013-02-26,2013-05-07,2013-05-13,2013-05-13,9.0,Y,ADVERSE EVENT,Y,Adverse Event,,71.0,Xanomeline Low Dose,Xan_Lo,1.0,54.0,54.0,3834.0,Xanomeline Low Dose,Xan_Lo,1.0,65.0,65-80,2.0,YEARS,CAUCASIAN,1.0,M,23.3,<25,2011-09-22,16.8,>=12,12.0,172.7,23.0,69.4,Y,Y,Y,N,N,Y
01-715-1155,CDISCPILOT01,ADSL,715,900,1155,2013-11-29,2013-12-13,2013-12-13,2013-12-13,2014-01-25,2014-04-26,2014-04-26,7.0,Y,PERSONAL CONFLICT OR OTHER PATIENT/CAREGIVER DECISION,,Withdrew Consent,,44.0,Placebo,Pbo,0.0,0.0,0.0,0.0,Placebo,Pbo,0.0,59.0,<65,1.0,YEARS,CAUCASIAN,1.0,F,23.3,<25,2010-12-09,35.7,>=12,12.0,165.1,10.0,63.5,Y,Y,N,N,N,N
01-715-1207,CDISCPILOT01,ADSL,715,900,1207,2012-11-12,2012-11-18,2012-11-18,2012-11-18,2013-05-27,2013-06-01,2013-06-01,12.0,,PROTOCOL COMPLETED,,Completed,,191.0,Placebo,Pbo,0.0,0.0,0.0,0.0,Placebo,Pbo,0.0,78.0,65-80,2.0,YEARS,CAUCASIAN,1.0,F,21.3,<25,2010-04-06,31.3,>=12,7.0,152.4,20.0,49.4,Y,Y,Y,Y,Y,Y
01-715-1319,CDISCPILOT01,ADSL,715,900,1319,2013-02-03,2013-02-17,2013-02-17,2013-02-17,2013-03-05,2013-03-18,2013-03-18,5.0,Y,PERSONAL CONFLICT OR OTHER PATIENT/CAREGIVER DECISION,,Withdrew Consent,,17.0,Xanomeline High Dose,Xan_Hi,2.0,81.0,57.2,972.0,Xanomeline High Dose,Xan_Hi,2.0,65.0,65-80,2.0,YEARS,CAUCASIAN,1.0,M,25.4,25-<30,2007-08-12,65.8,>=12,13.0,172.7,12.0,75.8,Y,Y,Y,N,N,N
01-715-1321,CDISCPILOT01,ADSL,715,900,1321,2014-02-06,2014-02-11,2014-02-11,2014-02-11,2014-04-21,2014-04-22,2014-04-22,9.0,Y,ADVERSE EVENT,Y,Adverse Event,,70.0,Xanomeline High Dose,Xan_Hi,2.0,81.0,74.8,5238.0,Xanomeline High Dose,Xan_Hi,2.0,75.0,65-80,2.0,YEARS,CAUCASIAN,1.0,F,22.7,<25,2010-11-30,38.3,>=12,12.0,162.6,23.0,59.9,Y,Y,Y,N,N,Y
01-715-1397,CDISCPILOT01,ADSL,715,900,1397,2013-03-20,2013-04-03,2013-04-03,2013-04-03,2013-10-02,2013-10-03,2013-10-03,12.0,,PROTOCOL COMPLETED,,Completed,,183.0,Placebo,Pbo,0.0,0.0,0.0,0.0,Placebo,Pbo,0.0,76.0,65-80,2.0,YEARS,CAUCASIAN,1.0,F,28.9,25-<30,2012-05-16,10.2,<12,11.0,152.4,22.0,67.1,Y,Y,Y,Y,Y,Y
01-715-1405,CDISCPILOT01,ADSL,715,900,1405,2013-06-27,2013-07-06,2013-07-06,2013-07-06,2013-07-07,2013-07-13,2013-07-13,4.0,Y,ADVERSE EVENT,Y,Adverse Event,,2.0,Xanomeline Low Dose,Xan_Lo,1.0,54.0,54.0,108.0,Xanomeline Low Dose,Xan_Lo,1.0,69.0,65-80,2.0,YEARS,CAUCASIAN,1.0,M,21.5,<25,2004-02-21,112.2,>=12,16.0,180.3,10.0,69.9,Y,Y,Y,N,N,N
01-716-1024,CDISCPILOT01,ADSL,716,716,1024,2012-07-06,2012-07-09,2012-07-09,2012-07-09,2013-01-20,2013-01-20,2013-01-20,12.0,,PROTOCOL COMPLETED,,Completed,,196.0,Placebo,Pbo,0.0,0.0,0.0,0.0,Placebo,Pbo,0.0,87.0,>80,3.0,YEARS,CAUCASIAN,1.0,F,22.7,<25,2011-12-01,7.2,<12,12.0,154.9,22.0,54.4,Y,Y,Y,Y,Y,Y
01-716-1026,CDISCPILOT01,ADSL,716,716,1026,2014-03-23,2014-04-02,2014-04-02,2014-04-02,2014-10-16,2014-10-16,2014-10-16,12.0,,PROTOCOL COMPLETED,,Completed,,198.0,Placebo,Pbo,0.0,0.0,0.0,0.0,Placebo,Pbo,0.0,73.0,65-80,2.0,YEARS,CAUCASIAN,1.0,F,33.3,>=30,2010-09-02,42.7,>=12,12.0,154.9,11.0,79.8,Y,Y,Y,Y,Y,Y
01-716-1030,CDISCPILOT01,ADSL,716,716,1030,2013-12-25,2013-12-28,2013-12-28,2013-12-28,2014-01-02,2014-01-10,2014-01-10,4.0,Y,PERSONAL CONFLICT OR OTHER PATIENT/CAREGIVER DECISION,,Withdrew Consent,,6.0,Xanomeline High Dose,Xan_Hi,2.0,81.0,54.0,324.0,Xanomeline High Dose,Xan_Hi,2.0,83.0,>80,3.0,YEARS,CAUCASIAN,1.0,F,33.2,>=30,2011-09-06,27.7,>=12,12.0,150.6,16.0,75.3,Y,Y,Y,N,N,N
01-716-1044,CDISCPILOT01,ADSL,716,716,1044,2013-04-20,2013-04-27,2013-04-27,2013-04-27,2013-11-03,2013-11-03,2013-11-03,12.0,,PROTOCOL COMPLETED,,Completed,,191.0,Placebo,Pbo,0.0,0.0,0.0,0.0,Placebo,Pbo,0.0,74.0,65-80,2.0,YEARS,CAUCASIAN,1.0,M,28.9,25-<30,2011-03-21,25.0,>=12,12.0,172.7,14.0,86.2,Y,Y,Y,Y,Y,Y
01-716-1063,CDISCPILOT01,ADSL,716,716,1063,2013-05-06,2013-05-09,2013-05-09,2013-05-09,2013-08-25,2013-08-28,2013-08-28,10.0,Y,ADVERSE EVENT,Y,Adverse Event,,109.0,Xanomeline Low Dose,Xan_Lo,1.0,54.0,54.0,5886.0,Xanomeline Low Dose,Xan_Lo,1.0,80.0,65-80,2.0,YEARS,CAUCASIAN,1.0,M,28.4,25-<30,2003-04-01,121.2,>=12,8.0,160.0,17.0,72.6,Y,Y,Y,N,Y,Y
01-716-1071,CDISCPILOT01,ADSL,716,716,1071,2013-06-03,2013-06-08,2013-06-08,2013-06-08,2013-08-01,2013-08-01,2013-08-01,8.0,Y,ADVERSE EVENT,Y,Adverse Event,,55.0,Xanomeline High Dose,Xan_Hi,2.0,81.0,73.6,4050.0,Xanomeline High Dose,Xan_Hi,2.0,78.0,65-80,2.0,YEARS,CAUCASIAN,1.0,F,32.0,>=30,2010-12-01,30.1,>=12,12.0,154.9,20.0,76.7,Y,Y,Y,N,N,Y
01-716-1094,CDISCPILOT01,ADSL,716,716,1094,2012-12-16,2012-12-19,2012-12-19,2012-12-19,2013-01-24,2013-01-26,2013-01-26,7.0,Y,ADVERSE EVENT,Y,Adverse Event,,37.0,Xanomeline Low Dose,Xan_Lo,1.0,54.0,54.0,1998.0,Xanomeline Low Dose,Xan_Lo,1.0,82.0,>80,3.0,YEARS,CAUCASIAN,1.0,M,28.3,25-<30,2007-12-28,59.7,>=12,8.0,168.9,11.0,80.7,Y,Y,Y,N,N,N
01-716-1103,CDISCPILOT01,ADSL,716,716,1103,2014-03-18,2014-03-20,2014-03-20,2014-03-20,2014-09-20,2014-09-20,2014-09-20,12.0,,PROTOCOL COMPLETED,,Completed,,185.0,Xanomeline Low Dose,Xan_Lo,1.0,54.0,54.0,9990.0,Xanomeline Low Dose,Xan_Lo,1.0,79.0,65-80,2.0,YEARS,CAUCASIAN,1.0,M,25.6,25-<30,2011-07-07,32.4,>=12,8.0,165.1,22.0,69.9,Y,Y,Y,Y,Y,Y
01-716-1108,CDISCPILOT01,ADSL,716,716,1108,2013-02-04,2013-02-12,2013-02-12,2013-02-12,2013-08-10,2013-08-10,2013-08-10,12.0,,PROTOCOL COMPLETED,,Completed,,180.0,Placebo,Pbo,0.0,0.0,0.0,0.0,Placebo,Pbo,0.0,86.0,>80,3.0,YEARS,CAUCASIAN,1.0,F,26.0,25-<30,2012-02-14,11.7,<12,12.0,142.2,21.0,52.6,Y,Y,Y,Y,Y,Y
01-716-1151,CDISCPILOT01,ADSL,716,716,1151,2013-01-23,2013-02-01,2013-02-01,2013-02-01,2013-05-11,2013-06-07,2013-06-07,10.0,Y,ADVERSE EVENT,Y,Adverse Event,,100.0,Xanomeline Low Dose,Xan_Lo,1.0,54.0,54.0,5400.0,Xanomeline Low Dose,Xan_Lo,1.0,83.0,>80,3.0,YEARS,CAUCASIAN,1.0,F,19.7,<25,2010-03-17,34.3,>=12,18.0,152.4,22.0,45.8,Y,Y,Y,N,Y,Y
01-716-1157,CDISCPILOT01,ADSL,716,716,1157,2013-09-23,2013-10-02,2013-10-02,2013-10-02,2014-04-04,2014-04-05,2014-04-05,12.0,,PROTOCOL COMPLETED,,Completed,,185.0,Xanomeline Low Dose,Xan_Lo,1.0,54.0,54.0,9990.0,Xanomeline Low Dose,Xan_Lo,1.0,85.0,>80,3.0,YEARS,CAUCASIAN,1.0,M,23.2,<25,2008-04-10,65.5,>=12,14.0,160.0,20.0,59.4,Y,Y,Y,Y,Y,Y
01-716-1160,CDISCPILOT01,ADSL,716,716,1160,2013-03-23,2013-04-05,2013-04-05,2013-04-05,2013-10-11,2013-10-11,2013-10-11,12.0,,PROTOCOL COMPLETED,,Completed,,190.0,Placebo,Pbo,0.0,0.0,0.0,0.0,Placebo,Pbo,0.0,83.0,>80,3.0,YEARS,CAUCASIAN,1.0,F,24.1,<25,2011-06-04,21.7,>=12,12.0,157.5,23.0,59.9,Y,Y,Y,Y,Y,Y
01-716-1167,CDISCPILOT01,ADSL,716,716,1167,2012-09-30,2012-10-08,2012-10-08,2012-10-08,2013-04-12,2013-04-13,2013-04-13,12.0,,PROTOCOL COMPLETED,,Completed,,187.0,Xanomeline Low Dose,Xan_Lo,1.0,54.0,54.0,10098.0,Xanomeline Low Dose,Xan_Lo,1.0,68.0,65-80,2.0,YEARS,CAUCASIAN,1.0,M,24.8,<25,2012-01-04,8.9,<12,12.0,158.8,19.0,62.6,Y,Y,Y,Y,Y,Y
01-716-1177,CDISCPILOT01,ADSL,716,716,1177,2014-08-29,2014-09-02,2014-09-02,2014-09-02,2015-03-05,2015-03-05,2015-03-05,12.0,,PROTOCOL COMPLETED,,Completed,,185.0,Placebo,Pbo,0.0,0.0,0.0,0.0,Placebo,Pbo,0.0,72.0,65-80,2.0,YEARS,CAUCASIAN,1.0,M,27.3,25-<30,2013-04-08,16.7,>=12,12.0,177.8,21.0,86.2,Y,Y,Y,Y,Y,Y
01-716-1189,CDISCPILOT01,ADSL,716,716,1189,2012-10-07,2012-10-09,2012-10-09,2012-10-09,2013-02-27,2013-03-03,2013-03-03,11.0,Y,ADVERSE EVENT,Y,Adverse Event,,142.0,Xanomeline High Dose,Xan_Hi,2.0,81.0,78.0,11070.0,Xanomeline High Dose,Xan_Hi,2.0,81.0,>80,3.0,YEARS,CAUCASIAN,1.0,M,27.4,25-<30,2008-08-19,49.6,>=12,9.0,163.8,21.0,73.5,Y,Y,Y,N,Y,Y
01-716-1229,CDISCPILOT01,ADSL,716,716,1229,2013-02-14,2013-02-20,2013-02-20,2013-02-20,2013-03-31,2013-04-02,2013-04-02,7.0,Y,ADVERSE EVENT,Y,Adverse Event,,40.0,Xanomeline High Dose,Xan_Hi,2.0,81.0,70.9,2835.0,Xanomeline High Dose,Xan_Hi,2.0,73.0,65-80,2.0,YEARS,CAUCASIAN,1.0,F,24.6,<25,2011-08-09,18.3,>=12,16.0,161.3,22.0,64.0,Y,Y,Y,N,N,N
01-716-1298,CDISCPILOT01,ADSL,716,716,1298,2013-04-04,2013-04-08,2013-04-08,2013-04-08,2013-06-28,2013-07-06,2013-07-06,9.0,Y,ADVERSE EVENT,Y,Adverse Event,,82.0,Xanomeline Low Dose,Xan_Lo,1.0,54.0,54.0,4428.0,Xanomeline Low Dose,Xan_Lo,1.0,76.0,65-80,2.0,YEARS,CAUCASIAN,1.0,F,29.4,25-<30,2008-05-15,58.7,>=12,12.0,156.2,11.0,71.7,Y,Y,Y,N,N,Y
01-716-1308,CDISCPILOT01,ADSL,716,716,1308,2013-08-23,2013-08-28,2013-08-28,2013-08-28,2013-10-07,2013-10-07,2013-10-07,7.0,Y,PERSONAL CONFLICT OR OTHER PATIENT/CAREGIVER DECISION,,Withdrew Consent,,41.0,Placebo,Pbo,0.0,0.0,0.0,0.0,Placebo,Pbo,0.0,76.0,65-80,2.0,YEARS,CAUCASIAN,1.0,F,23.6,<25,2009-11-17,45.2,>=12,13.0,157.5,13.0,58.5,Y,Y,Y,N,N,N
01-716-1311,CDISCPILOT01,ADSL,716,716,1311,2014-05-08,2014-05-14,2014-05-14,2014-05-14,2014-09-21,2014-09-30,2014-09-30,11.0,Y,PERSONAL CONFLICT OR OTHER PATIENT/CAREGIVER DECISION,,Withdrew Consent,,131.0,Xanomeline Low Dose,Xan_Lo,1.0,54.0,54.0,7074.0,Xanomeline Low Dose,Xan_Lo,1.0,78.0,65-80,2.0,YEARS,CAUCASIAN,1.0,M,27.1,25-<30,2003-06-16,130.8,>=12,14.0,172.7,11.0,80.7,Y,Y,Y,N,Y,Y
01-716-1364,CDISCPILOT01,ADSL,716,716,1364,2013-06-27,2013-07-04,2013-07-04,2013-07-04,2014-01-09,2014-01-09,2014-01-09,12.0,,PROTOCOL COMPLETED,,Completed,,190.0,Xanomeline High Dose,Xan_Hi,2.0,81.0,76.6,14553.0,Xanomeline High Dose,Xan_Hi,2.0,84.0,>80,3.0,YEARS,CAUCASIAN,1.0,F,20.4,<25,2010-08-10,34.6,>=12,12.0,162.6,17.0,54.0,Y,Y,Y,Y,Y,Y
01-716-1373,CDISCPILOT01,ADSL,716,716,1373,2012-11-24,2012-12-14,2012-12-14,2012-12-14,2013-02-27,2013-02-28,2013-02-28,9.0,Y,ADVERSE EVENT,Y,Adverse Event,,76.0,Xanomeline High Dose,Xan_Hi,2.0,81.0,75.0,5697.0,Xanomeline High Dose,Xan_Hi,2.0,74.0,65-80,2.0,YEARS,CAUCASIAN,1.0,M,32.0,>=30,2009-05-21,42.2,>=12,16.0,147.3,23.0,69.4,Y,Y,Y,N,N,Y
01-716-1418,CDISCPILOT01,ADSL,716,716,1418,2013-04-27,2013-05-05,2013-05-05,2013-05-05,2013-11-20,2013-11-20,2013-11-20,12.0,,PROTOCOL COMPLETED,,Completed,,200.0,Xanomeline High Dose,Xan_Hi,2.0,81.0,77.1,15417.0,Xanomeline High Dose,Xan_Hi,2.0,80.0,65-80,2.0,YEARS,CAUCASIAN,1.0,F,25.3,25-<30,2010-05-02,35.9,>=12,8.0,165.1,20.0,69.0,Y,Y,Y,Y,Y,Y
01-716-1441,CDISCPILOT01,ADSL,716,716,1441,2014-01-13,2014-01-22,2014-01-22,2014-01-22,2014-07-22,2014-07-22,2014-07-22,12.0,,PROTOCOL COMPLETED,,Completed,,182.0,Placebo,Pbo,0.0,0.0,0.0,0.0,Placebo,Pbo,0.0,85.0,>80,3.0,YEARS,CAUCASIAN,1.0,M,27.5,25-<30,2010-05-25,43.7,>=12,10.0,144.8,22.0,57.6,Y,Y,Y,Y,Y,Y
01-716-1447,CDISCPILOT01,ADSL,716,716,1447,2013-12-10,2013-12-16,2013-12-16,2013-12-16,2014-06-17,2014-06-17,2014-06-17,12.0,,PROTOCOL COMPLETED,,Completed,,184.0,Xanomeline High Dose,Xan_Hi,2.0,81.0,77.2,14202.0,Xanomeline High Dose,Xan_Hi,2.0,72.0,65-80,2.0,YEARS,CAUCASIAN,1.0,F,24.2,<25,2010-05-15,42.9,>=12,14.0,149.9,22.0,54.4,Y,Y,Y,Y,Y,Y
01-717-1004,CDISCPILOT01,ADSL,717,900,1004,2014-01-01,2014-01-14,2014-01-14,2014-01-14,2014-07-16,2014-07-16,2014-07-16,12.0,,PROTOCOL COMPLETED,,Completed,,184.0,Xanomeline Low Dose,Xan_Lo,1.0,54.0,54.0,9936.0,Xanomeline Low Dose,Xan_Lo,1.0,80.0,65-80,2.0,YEARS,CAUCASIAN,1.0,F,30.2,>=30,2010-05-08,43.9,>=12,15.0,135.9,13.0,55.8,Y,Y,Y,Y,Y,Y
01-717-1109,CDISCPILOT01,ADSL,717,900,1109,2014-01-20,2014-01-27,2014-01-27,2014-01-27,2014-07-28,2014-07-28,2014-07-28,12.0,,PROTOCOL COMPLETED,,Completed,,183.0,Xanomeline High Dose,Xan_Hi,2.0,81.0,77.3,14148.0,Xanomeline High Dose,Xan_Hi,2.0,84.0,>80,3.0,YEARS,CAUCASIAN,1.0,M,13.7,<25,2012-03-11,22.4,>=12,17.0,180.3,20.0,44.5,Y,Y,Y,Y,Y,Y
01-717-1174,CDISCPILOT01,ADSL,717,900,1174,2013-01-16,2013-01-22,2013-01-22,2013-01-22,2013-07-24,2013-07-24,2013-07-24,12.0,,PROTOCOL COMPLETED,,Completed,,184.0,Xanomeline High Dose,Xan_Hi,2.0,81.0,76.5,14067.0,Xanomeline High Dose,Xan_Hi,2.0,73.0,65-80,2.0,YEARS,CAUCASIAN,1.0,M,24.2,<25,2010-09-02,28.5,>=12,16.0,167.6,22.0,68.0,Y,Y,Y,Y,Y,Y
01-717-1201,CDISCPILOT01,ADSL,717,900,1201,2013-12-12,2013-12-19,2013-12-19,2013-12-19,2014-02-21,2014-02-21,2014-02-21,8.0,Y,"LACK OF EFFICACY, PATIENT CAREGIVER PERCEPTION",,Lack of Efficacy,,65.0,Placebo,Pbo,0.0,0.0,0.0,0.0,Placebo,Pbo,0.0,85.0,>80,3.0,YEARS,CAUCASIAN,1.0,F,26.6,25-<30,2011-03-23,32.7,>=12,12.0,160.0,23.0,68.0,Y,Y,Y,N,N,Y
01-717-1344,CDISCPILOT01,ADSL,717,900,1344,2014-01-01,2014-01-11,2014-01-11,2014-01-11,2014-03-14,2014-03-14,2014-03-14,8.0,Y,"LACK OF EFFICACY, PATIENT CAREGIVER PERCEPTION",,Lack of Efficacy,,63.0,Placebo,Pbo,0.0,0.0,0.0,0.0,Placebo,Pbo,0.0,64.0,<65,1.0,YEARS,CAUCASIAN,1.0,F,21.7,<25,2008-09-10,63.7,>=12,16.0,163.5,21.0,58.1,Y,Y,Y,N,N,Y
01-717-1357,CDISCPILOT01,ADSL,717,900,1357,2013-04-21,2013-05-01,2013-05-01,2013-05-01,2013-10-14,2013-10-20,2013-10-20,12.0,Y,SPONSOR DECISION (STUDY OR PATIENT DISCONTINUED BY THE SPONSOR),,Sponsor Decision,,167.0,Xanomeline High Dose,Xan_Hi,2.0,81.0,78.6,13122.0,Xanomeline High Dose,Xan_Hi,2.0,77.0,65-80,2.0,YEARS,CAUCASIAN,1.0,M,24.7,<25,2010-02-20,38.0,>=12,14.0,181.6,12.0,81.3,Y,Y,Y,Y,Y,Y
01-717-1446,CDISCPILOT01,ADSL,717,900,1446,2013-08-20,2013-09-01,2013-09-01,2013-09-01,2014-03-03,2014-03-04,2014-03-04,12.0,,PROTOCOL COMPLETED,,Completed,,184.0,Xanomeline Low Dose,Xan_Lo,1.0,54.0,54.0,9936.0,Xanomeline Low Dose,Xan_Lo,1.0,75.0,65-80,2.0,YEARS,CAUCASIAN,1.0,F,19.3,<25,2010-02-10,42.3,>=12,12.0,156.2,21.0,47.2,Y,Y,Y,Y,Y,Y
01-718-1066,CDISCPILOT01,ADSL,718,718,1066,2013-06-28,2013-07-07,2013-07-07,2013-07-07,2013-07-16,2013-07-30,2013-07-30,4.0,Y,ADVERSE EVENT,Y,Adverse Event,,10.0,Xanomeline Low Dose,Xan_Lo,1.0,54.0,54.0,540.0,Xanomeline Low Dose,Xan_Lo,1.0,79.0,65-80,2.0,YEARS,CAUCASIAN,1.0,F,20.0,<25,2011-06-02,24.9,>=12,14.0,158.8,20.0,50.4,Y,Y,Y,N,N,N
01-718-1079,CDISCPILOT01,ADSL,718,718,1079,2012-09-11,2012-09-19,2012-09-19,2012-09-19,2012-10-31,2012-11-06,2012-11-06,7.0,Y,ADVERSE EVENT,Y,Adverse Event,,43.0,Xanomeline Low Dose,Xan_Lo,1.0,54.0,54.0,2322.0,Xanomeline Low Dose,Xan_Lo,1.0,67.0,65-80,2.0,YEARS,CAUCASIAN,1.0,F,20.0,<25,2005-06-27,86.5,>=12,16.0,158.8,17.0,50.4,Y,Y,Y,N,N,N
01-718-1101,CDISCPILOT01,ADSL,718,718,1101,2013-02-01,2013-02-17,2013-02-17,2013-02-17,2013-07-31,2013-08-02,2013-08-02,12.0,Y,SPONSOR DECISION (STUDY OR PATIENT DISCONTINUED BY THE SPONSOR),,Sponsor Decision,,165.0,Xanomeline High Dose,Xan_Hi,2.0,81.0,78.5,12960.0,Xanomeline High Dose,Xan_Hi,2.0,82.0,>80,3.0,YEARS,"AFRICAN DESCENT (NEGRO, BLACK)",2.0,M,23.2,<25,2008-04-14,57.7,>=12,12.0,186.2,13.0,80.3,Y,Y,Y,Y,Y,Y
01-718-1139,CDISCPILOT01,ADSL,718,718,1139,2013-05-03,2013-05-19,2013-05-19,2013-05-19,2013-11-17,2013-11-17,2013-11-17,12.0,,PROTOCOL COMPLETED,,Completed,,183.0,Placebo,Pbo,0.0,0.0,0.0,0.0,Placebo,Pbo,0.0,77.0,65-80,2.0,YEARS,CAUCASIAN,1.0,M,22.4,<25,2008-03-29,61.2,>=12,14.0,171.5,16.0,65.8,Y,Y,Y,Y,Y,Y
01-718-1150,CDISCPILOT01,ADSL,718,718,1150,2013-01-12,2013-01-19,2013-01-19,2013-01-19,2013-07-29,2013-07-31,2013-07-31,12.0,,PROTOCOL COMPLETED,,Completed,,192.0,Placebo,Pbo,0.0,0.0,0.0,0.0,Placebo,Pbo,0.0,73.0,65-80,2.0,YEARS,CAUCASIAN,1.0,F,22.5,<25,2012-03-11,10.1,<12,16.0,156.2,22.0,54.9,Y,Y,Y,Y,Y,Y
01-718-1170,CDISCPILOT01,ADSL,718,718,1170,2013-08-25,2013-09-16,2013-09-16,2013-09-16,2013-10-12,2013-11-03,2013-11-03,5.0,Y,ADVERSE EVENT,Y,Adverse Event,,27.0,Xanomeline Low Dose,Xan_Lo,1.0,54.0,54.0,1458.0,Xanomeline Low Dose,Xan_Lo,1.0,80.0,65-80,2.0,YEARS,CAUCASIAN,1.0,F,21.8,<25,2012-08-25,12.0,>=12,12.0,162.6,19.0,57.6,Y,Y,Y,N,N,N
01-718-1172,CDISCPILOT01,ADSL,718,718,1172,2013-09-15,2013-09-21,2013-09-21,2013-09-21,2013-11-29,2013-11-29,2013-11-29,9.0,Y,PERSONAL CONFLICT OR OTHER PATIENT/CAREGIVER DECISION,,Withdrew Consent,,70.0,Placebo,Pbo,0.0,0.0,0.0,0.0,Placebo,Pbo,0.0,74.0,65-80,2.0,YEARS,CAUCASIAN,1.0,M,21.9,<25,2011-10-01,23.5,>=12,21.0,174.0,10.0,66.2,Y,Y,Y,N,N,Y
01-718-1250,CDISCPILOT01,ADSL,718,718,1250,2013-08-21,2013-09-21,2013-09-21,2013-09-21,2014-01-31,2014-02-08,2014-02-08,11.0,Y,ADVERSE EVENT,Y,Adverse Event,,133.0,Xanomeline Low Dose,Xan_Lo,1.0,54.0,54.0,7182.0,Xanomeline Low Dose,Xan_Lo,1.0,82.0,>80,3.0,YEARS,"HISPANIC (MEXICAN - AMERICAN, MEXICO, CENTRAL AND SOUTH AMERICA)",5.0,F,23.6,<25,2008-08-20,60.1,>=12,21.0,157.5,18.0,58.5,Y,Y,Y,N,Y,Y
01-718-1254,CDISCPILOT01,ADSL,718,718,1254,2013-06-28,2013-07-10,2013-07-10,2013-07-10,2014-01-09,2014-01-09,2014-01-09,12.0,,PROTOCOL COMPLETED,,Completed,,184.0,Xanomeline Low Dose,Xan_Lo,1.0,54.0,54.0,9936.0,Xanomeline Low Dose,Xan_Lo,1.0,78.0,65-80,2.0,YEARS,"HISPANIC (MEXICAN - AMERICAN, MEXICO, CENTRAL AND SOUTH AMERICA)",5.0,M,28.3,25-<30,2011-09-12,21.6,>=12,18.0,170.2,16.0,82.1,Y,Y,Y,Y,Y,Y
01-718-1328,CDISCPILOT01,ADSL,718,718,1328,2013-01-28,2013-02-01,2013-02-01,2013-02-01,2013-04-18,2013-05-01,2013-05-01,9.0,Y,PERSONAL CONFLICT OR OTHER PATIENT/CAREGIVER DECISION,,Withdrew Consent,,77.0,Xanomeline High Dose,Xan_Hi,2.0,81.0,76.1,5859.0,Xanomeline High Dose,Xan_Hi,2.0,86.0,>80,3.0,YEARS,CAUCASIAN,1.0,M,21.9,<25,2010-01-11,36.6,>=12,12.0,170.2,13.0,63.5,Y,Y,Y,N,N,Y
01-718-1355,CDISCPILOT01,ADSL,718,718,1355,2013-02-12,2013-02-28,2013-02-28,2013-02-28,2013-08-29,2013-08-29,2013-08-29,12.0,,PROTOCOL COMPLETED,,Completed,,183.0,Placebo,Pbo,0.0,0.0,0.0,0.0,Placebo,Pbo,0.0,79.0,65-80,2.0,YEARS,CAUCASIAN,1.0,M,20.8,<25,2008-12-05,50.3,>=12,15.0,167.6,16.0,58.5,Y,Y,Y,Y,Y,Y
01-718-1371,CDISCPILOT01,ADSL,718,718,1371,2013-04-11,2013-04-26,2013-04-26,2013-04-26,2013-08-01,2013-08-08,2013-08-08,9.0,Y,ADVERSE EVENT,Y,Adverse Event,,98.0,Xanomeline High Dose,Xan_Hi,2.0,81.0,77.4,7587.0,Xanomeline High Dose,Xan_Hi,2.0,69.0,65-80,2.0,YEARS,CAUCASIAN,1.0,F,27.8,25-<30,2013-02-04,2.2,<12,10.0,154.9,16.0,66.7,Y,Y,Y,N,N,Y
01-718-1427,CDISCPILOT01,ADSL,718,718,1427,2012-12-13,2012-12-17,2012-12-17,2012-12-17,2013-02-11,2013-02-18,2013-02-18,8.0,Y,"LACK OF EFFICACY, PATIENT CAREGIVER PERCEPTION",,Lack of Efficacy,,57.0,Xanomeline High Dose,Xan_Hi,2.0,81.0,73.9,4212.0,Xanomeline High Dose,Xan_Hi,2.0,74.0,65-80,2.0,YEARS,"AFRICAN DESCENT (NEGRO, BLACK)",2.0,F,20.5,<25,2010-05-03,31.4,>=12,16.0,158.8,19.0,51.7,Y,Y,Y,N,N,Y
