USUBJID,STUDYID,DOMAIN,SITEID,SUBJID,TTP,TTPU,TTPCNSR,AESEQ,AEDECOD,AETERM,TRTP,TRTPCD,TRTPN,AGEGRP,RACE,RACEN,SEX,SAFETY,ITT,EFFICACY,COMPLT24,TRTSTDT,LSTDOSDT
01-701-1015,CDISCPILOT01,ADTTE,701,1015,2.0,DAYS,1.0,1.0,APPLICATION SITE ERYTHEMA,VERBATIM_0995,Placebo,Pbo,0.0,<65,"HISPANIC (MEXICAN - AMERICAN, MEXICO, CENTRAL AND SOUTH AMERICA)",5.0,F,Y,Y,Y,Y,2014-01-02,2014-07-02
01-701-1023,CDISCPILOT01,ADTTE,701,1023,3.0,DAYS,1.0,1.0,ERYTHEMA,VERBATIM_0300,Placebo,Pbo,0.0,<65,"HISPANIC (MEXICAN - AMERICAN, MEXICO, CENTRAL AND SOUTH AMERICA)",5.0,M,Y,Y,Y,N,2012-08-05,2012-09-01
01-701-1028,CDISCPILOT01,ADTTE,701,1028,3.0,DAYS,1.0,1.0,APPLICATION SITE ERYTHEMA,VERBATIM_1157,Xanomeline High Dose,Xan_Hi,2.0,65-80,CAUCASIAN,1.0,M,Y,Y,Y,Y,2013-07-19,2014-01-14
01-701-1033,CDISCPILOT01,ADTTE,701,1033,28.0,DAYS,0.0,,,,Xanomeline Low Dose,Xan_Lo,1.0,65-80,CAUCASIAN,1.0,M,Y,Y,Y,N,2014-03-18,2014-03-31
01-701-1034,CDISCPILOT01,ADTTE,701,1034,58.0,DAYS,1.0,1.0,APPLICATION SITE PRURITUS,VERBATIM_1219,Xanomeline High Dose,Xan_Hi,2.0,65-80,CAUCASIAN,1.0,F,Y,Y,Y,Y,2014-07-01,2014-12-30
01-701-1047,CDISCPILOT01,ADTTE,701,1047,46.0,DAYS,0.0,,,,Placebo,Pbo,0.0,>80,CAUCASIAN,1.0,F,Y,Y,Y,N,2013-02-12,2013-03-09
01-701-1097,CDISCPILOT01,ADTTE,701,1097,3.0,DAYS,1.0,1.0,ERYTHEMA,VERBATIM_0300,Xanomeline Low Dose,Xan_Lo,1.0,65-80,CAUCASIAN,1.0,M,Y,Y,Y,Y,2014-01-01,2014-07-09
01-701-1111,CDISCPILOT01,ADTTE,701,1111,11.0,DAYS,0.0,,,,Xanomeline Low Dose,Xan_Lo,1.0,>80,CAUCASIAN,1.0,F,Y,Y,Y,N,2012-09-07,2012-09-16
01-701-1115,CDISCPILOT01,ADTTE,701,1115,3.0,DAYS,1.0,1.0,APPLICATION SITE ERYTHEMA,VERBATIM_0716,Xanomeline Low Dose,Xan_Lo,1.0,>80,CAUCASIAN,1.0,M,Y,Y,Y,N,2012-11-30,2013-01-23
01-701-1118,CDISCPILOT01,ADTTE,701,1118,182.0,DAYS,0.0,,,,Placebo,Pbo,0.0,<65,CAUCASIAN,1.0,M,Y,Y,Y,Y,2014-03-12,2014-09-09
01-701-1130,CDISCPILOT01,ADTTE,701,1130,97.0,DAYS,1.0,7.0,PRURITUS,VERBATIM_0826,Placebo,Pbo,0.0,>80,CAUCASIAN,1.0,M,Y,Y,Y,Y,2014-02-15,2014-08-16
01-701-1133,CDISCPILOT01,ADTTE,701,1133,61.0,DAYS,1.0,1.0,APPLICATION SITE ERYTHEMA,VERBATIM_0995,Xanomeline High Dose,Xan_Hi,2.0,>80,CAUCASIAN,1.0,F,Y,Y,Y,Y,2012-10-28,2013-04-28
01-701-1146,CDISCPILOT01,ADTTE,701,1146,13.0,DAYS,1.0,3.0,APPLICATION SITE IRRITATION,VERBATIM_0583,Xanomeline High Dose,Xan_Hi,2.0,65-80,CAUCASIAN,1.0,F,Y,Y,Y,N,2013-05-20,2013-06-26
01-701-1148,CDISCPILOT01,ADTTE,701,1148,3.0,DAYS,1.0,1.0,APPLICATION SITE ERYTHEMA,VERBATIM_0922,Xanomeline High Dose,Xan_Hi,2.0,<65,CAUCASIAN,1.0,M,Y,Y,Y,Y,2013-08-23,2014-02-20
01-701-1153,CDISCPILOT01,ADTTE,701,1153,191.0,DAYS,0.0,,,,Placebo,Pbo,0.0,65-80,CAUCASIAN,1.0,F,Y,Y,Y,Y,2013-09-23,2014-03-16
01-701-1180,CDISCPILOT01,ADTTE,701,1180,36.0,DAYS,1.0,7.0,APPLICATION SITE VESICLES,VERBATIM_1474,Xanomeline High Dose,Xan_Hi,2.0,<65,CAUCASIAN,1.0,M,Y,Y,Y,N,2013-02-12,2013-03-18
01-701-1181,CDISCPILOT01,ADTTE,701,1181,8.0,DAYS,0.0,,,,Xanomeline High Dose,Xan_Hi,2.0,65-80,CAUCASIAN,1.0,F,Y,Y,Y,N,2013-12-05,2013-12-09
01-701-1188,CDISCPILOT01,ADTTE,701,1188,2.0,DAYS,1.0,1.0,ERYTHEMA,VERBATIM_0300,Xanomeline Low Dose,Xan_Lo,1.0,65-80,CAUCASIAN,1.0,M,Y,Y,Y,N,2013-02-15,2013-03-24
01-701-1192,CDISCPILOT01,ADTTE,701,1192,17.0,DAYS,1.0,3.0,ERYTHEMA,VERBATIM_1470,Xanomeline Low Dose,Xan_Lo,1.0,65-80,CAUCASIAN,1.0,F,Y,Y,Y,Y,2012-07-22,2013-01-20
01-701-1203,CDISCPILOT01,ADTTE,701,1203,183.0,DAYS,0.0,,,,Placebo,Pbo,0.0,>80,"AFRICAN DESCENT (NEGRO, BLACK)",2.0,F,Y,Y,Y,Y,2013-02-02,2013-08-03
01-701-1211,CDISCPILOT01,ADTTE,701,1211,2.0,DAYS,1.0,1.0,APPLICATION SITE PRURITUS,VERBATIM_1219,Xanomeline Low Dose,Xan_Lo,1.0,65-80,CAUCASIAN,1.0,F,Y,Y,Y,N,2012-11-15,2013-01-12
01-701-1234,CDISCPILOT01,ADTTE,701,1234,177.0,DAYS,0.0,,,,Placebo,Pbo,0.0,65-80,CAUCASIAN,1.0,M,Y,Y,Y,Y,2013-03-30,2013-09-22
01-701-1239,CDISCPILOT01,ADTTE,701,1239,2.0,DAYS,1.0,1.0,ERYTHEMA,VERBATIM_0300,Xanomeline High Dose,Xan_Hi,2.0,<65,"HISPANIC (MEXICAN - AMERICAN, MEXICO, CENTRAL AND SOUTH AMERICA)",5.0,M,Y,Y,Y,Y,2014-01-11,2014-07-10
01-701-1275,CDISCPILOT01,ADTTE,701,1275,18.0,DAYS,1.0,3.0,ERYTHEMA,VERBATIM_0300,Xanomeline High Dose,Xan_Hi,2.0,<65,"OTHER (MIXED - RACIAL HERITAGE, AMERICAN INDIAN, ESKIMO)",6.0,M,Y,Y,Y,N,2014-02-07,2014-05-31
01-701-1287,CDISCPILOT01,ADTTE,701,1287,29.0,DAYS,1.0,2.0,APPLICATION SITE PRURITUS,VERBATIM_0445,Xanomeline High Dose,Xan_Hi,2.0,<65,"HISPANIC (MEXICAN - AMERICAN, MEXICO, CENTRAL AND SOUTH AMERICA)",5.0,F,Y,Y,Y,Y,2014-01-25,2014-07-26
01-701-1294,CDISCPILOT01,ADTTE,701,1294,57.0,DAYS,1.0,2.0,APPLICATION SITE PRURITUS,VERBATIM_1219,Xanomeline Low Dose,Xan_Lo,1.0,65-80,CAUCASIAN,1.0,M,Y,Y,Y,N,2013-03-24,2013-06-14
01-701-1302,CDISCPILOT01,ADTTE,701,1302,2.0,DAYS,1.0,1.0,APPLICATION SITE PERSPIRATION,VERBATIM_0038,Xanomeline High Dose,Xan_Hi,2.0,<65,CAUCASIAN,1.0,M,Y,Y,Y,N,2013-08-29,2013-11-05
01-701-1317,CDISCPILOT01,ADTTE,701,1317,33.0,DAYS,1.0,3.0,APPLICATION SITE ERYTHEMA,VERBATIM_0716,Xanomeline Low Dose,Xan_Lo,1.0,65-80,CAUCASIAN,1.0,M,Y,Y,Y,Y,2014-05-22,2014-11-20
01-701-1324,CDISCPILOT01,ADTTE,701,1324,21.0,DAYS,1.0,1.0,APPLICATION SITE ERYTHEMA,VERBATIM_0013,Xanomeline Low Dose,Xan_Lo,1.0,65-80,CAUCASIAN,1.0,M,Y,Y,Y,Y,2012-10-02,2013-04-02
01-701-1341,CDISCPILOT01,ADTTE,701,1341,15.0,DAYS,1.0,1.0,APPLICATION SITE PRURITUS,VERBATIM_1271,Xanomeline Low Dose,Xan_Lo,1.0,<65,CAUCASIAN,1.0,M,Y,Y,Y,N,2013-01-05,2013-01-26
01-701-1345,CDISCPILOT01,ADTTE,701,1345,162.0,DAYS,0.0,,,,Placebo,Pbo,0.0,<65,CAUCASIAN,1.0,F,Y,Y,Y,Y,2013-10-08,2014-03-18
01-701-1360,CDISCPILOT01,ADTTE,701,1360,3.0,DAYS,1.0,1.0,APPLICATION SITE ERYTHEMA,VERBATIM_0709,Xanomeline High Dose,Xan_Hi,2.0,65-80,CAUCASIAN,1.0,M,Y,Y,Y,N,2013-07-31,2013-08-05
01-701-1363,CDISCPILOT01,ADTTE,701,1363,48.0,DAYS,1.0,3.0,APPLICATION SITE PRURITUS,VERBATIM_1219,Placebo,Pbo,0.0,>80,"AFRICAN DESCENT (NEGRO, BLACK)",2.0,F,Y,Y,Y,Y,2013-05-30,2013-11-27
01-701-1383,CDISCPILOT01,ADTTE,701,1383,4.0,DAYS,1.0,1.0,APPLICATION SITE PRURITUS,VERBATIM_1035,Xanomeline High Dose,Xan_Hi,2.0,65-80,CAUCASIAN,1.0,F,Y,Y,Y,Y,2013-02-04,2013-08-06
01-701-1387,CDISCPILOT01,ADTTE,701,1387,14.0,DAYS,0.0,,,,Placebo,Pbo,0.0,>80,CAUCASIAN,1.0,F,Y,Y,Y,N,2014-03-12,2014-03-25
01-701-1392,CDISCPILOT01,ADTTE,701,1392,183.0,DAYS,0.0,,,,Placebo,Pbo,0.0,65-80,CAUCASIAN,1.0,M,Y,Y,Y,Y,2012-10-28,2013-04-28
01-701-1415,CDISCPILOT01,ADTTE,701,1415,183.0,DAYS,0.0,,,,Placebo,Pbo,0.0,>80,CAUCASIAN,1.0,M,Y,Y,Y,Y,2013-09-23,2014-03-24
01-701-1429,CDISCPILOT01,ADTTE,701,1429,43.0,DAYS,0.0,,,,Xanomeline Low Dose,Xan_Lo,1.0,>80,CAUCASIAN,1.0,F,Y,Y,Y,N,2013-03-19,2013-04-30
01-701-1440,CDISCPILOT01,ADTTE,701,1440,182.0,DAYS,0.0,,,,Placebo,Pbo,0.0,65-80,CAUCASIAN,1.0,M,Y,Y,Y,Y,2013-08-08,2014-02-05
01-701-1442,CDISCPILOT01,ADTTE,701,1442,77.0,DAYS,1.0,1.0,APPLICATION SITE PRURITUS,VERBATIM_1219,Xanomeline Low Dose,Xan_Lo,1.0,<65,"AFRICAN DESCENT (NEGRO, BLACK)",2.0,F,Y,Y,Y,Y,2013-10-26,2014-04-26
01-701-1444,CDISCPILOT01,ADTTE,701,1444,15.0,DAYS,1.0,1.0,APPLICATION SITE ERYTHEMA,VERBATIM_0349,Xanomeline High Dose,Xan_Hi,2.0,<65,"HISPANIC (MEXICAN - AMERICAN, MEXICO, CENTRAL AND SOUTH AMERICA)",5.0,M,Y,Y,Y,N,2013-01-05,2013-02-12
01-702-1082,CDISCPILOT01,ADTTE,702,1082,46.0,DAYS,1.0,9.0,APPLICATION SITE IRRITATION,VERBATIM_1336,Xanomeline Low Dose,Xan_Lo,1.0,>80,CAUCASIAN,1.0,F,Y,Y,Y,N,2013-07-26,2013-10-13
01-703-1042,CDISCPILOT01,ADTTE,703,1042,183.0,DAYS,0.0,,,,Placebo,Pbo,0.0,<65,CAUCASIAN,1.0,M,Y,Y,Y,Y,2013-03-02,2013-08-31
01-703-1076,CDISCPILOT01,ADTTE,703,1076,30.0,DAYS,1.0,4.0,APPLICATION SITE PRURITUS,VERBATIM_1219,Xanomeline High Dose,Xan_Hi,2.0,65-80,CAUCASIAN,1.0,M,Y,Y,Y,N,2013-10-25,2013-12-24
01-703-1086,CDISCPILOT01,ADTTE,703,1086,12.0,DAYS,1.0,1.0,APPLICATION SITE IRRITATION,VERBATIM_1336,Xanomeline Low Dose,Xan_Lo,1.0,65-80,CAUCASIAN,1.0,M,Y,Y,Y,N,2012-09-02,2012-12-04
01-703-1096,CDISCPILOT01,ADTTE,703,1096,64.0,DAYS,0.0,,,,Placebo,Pbo,0.0,>80,CAUCASIAN,1.0,F,Y,Y,N,N,2013-01-25,2013-03-16
01-703-1100,CDISCPILOT01,ADTTE,703,1100,24.0,DAYS,1.0,1.0,APPLICATION SITE IRRITATION,VERBATIM_0583,Placebo,Pbo,0.0,>80,CAUCASIAN,1.0,F,Y,Y,Y,Y,2013-03-13,2013-09-14
01-703-1119,CDISCPILOT01,ADTTE,703,1119,25.0,DAYS,1.0,1.0,APPLICATION SITE IRRITATION,VERBATIM_1336,Xanomeline Low Dose,Xan_Lo,1.0,>80,CAUCASIAN,1.0,F,Y,Y,Y,N,2013-02-20,2013-06-13
01-703-1175,CDISCPILOT01,ADTTE,703,1175,12.0,DAYS,0.0,,,,Placebo,Pbo,0.0,65-80,CAUCASIAN,1.0,M,Y,Y,Y,N,2013-12-20,2013-12-26
01-703-1182,CDISCPILOT01,ADTTE,703,1182,15.0,DAYS,1.0,1.0,APPLICATION SITE ERYTHEMA,VERBATIM_1489,Xanomeline Low Dose,Xan_Lo,1.0,>80,CAUCASIAN,1.0,M,Y,Y,Y,N,2013-10-17,2013-12-11
01-703-1197,CDISCPILOT01,ADTTE,703,1197,37.0,DAYS,0.0,,,,Xanomeline Low Dose,Xan_Lo,1.0,65-80,"AFRICAN DESCENT (NEGRO, BLACK)",2.0,F,Y,Y,Y,N,2013-06-16,2013-06-29
01-703-1210,CDISCPILOT01,ADTTE,703,1210,175.0,DAYS,0.0,,,,Placebo,Pbo,0.0,65-80,CAUCASIAN,1.0,F,Y,Y,Y,Y,2013-03-16,2013-09-06
01-703-1258,CDISCPILOT01,ADTTE,703,1258,47.0,DAYS,1.0,4.0,APPLICATION SITE DERMATITIS,VERBATIM_1298,Xanomeline High Dose,Xan_Hi,2.0,65-80,CAUCASIAN,1.0,F,Y,Y,Y,Y,2012-07-20,2013-01-11
01-703-1279,CDISCPILOT01,ADTTE,703,1279,41.0,DAYS,0.0,,,,Xanomeline Low Dose,Xan_Lo,1.0,65-80,CAUCASIAN,1.0,F,Y,Y,N,N,2013-05-13,2013-06-03
01-703-1295,CDISCPILOT01,ADTTE,703,1295,180.0,DAYS,0.0,,,,Xanomeline High Dose,Xan_Hi,2.0,>80,CAUCASIAN,1.0,F,Y,Y,Y,N,2013-11-21,2014-04-19
01-703-1299,CDISCPILOT01,ADTTE,703,1299,183.0,DAYS,0.0,,,,Placebo,Pbo,0.0,>80,CAUCASIAN,1.0,F,Y,Y,Y,Y,2012-09-12,2013-03-13
01-703-1335,CDISCPILOT01,ADTTE,703,1335,69.0,DAYS,0.0,,,,Xanomeline High Dose,Xan_Hi,2.0,65-80,"AFRICAN DESCENT (NEGRO, BLACK)",2.0,F,Y,Y,Y,N,2014-03-17,2014-05-07
01-703-1379,CDISCPILOT01,ADTTE,703,1379,181.0,DAYS,0.0,,,,Xanomeline Low Dose,Xan_Lo,1.0,>80,"AFRICAN DESCENT (NEGRO, BLACK)",2.0,F,Y,Y,Y,Y,2013-09-22,2014-03-21
01-703-1403,CDISCPILOT01,ADTTE,703,1403,8.0,DAYS,0.0,,,,Xanomeline High Dose,Xan_Hi,2.0,65-80,CAUCASIAN,1.0,M,Y,Y,N,N,2012-12-12,2012-12-13
01-703-1439,CDISCPILOT01,ADTTE,703,1439,44.0,DAYS,1.0,1.0,APPLICATION SITE IRRITATION,VERBATIM_0583,Xanomeline High Dose,Xan_Hi,2.0,65-80,CAUCASIAN,1.0,F,Y,Y,Y,Y,2014-03-12,2014-09-11
01-704-1008,CDISCPILOT01,ADTTE,704,1008,44.0,DAYS,0.0,,,,Xanomeline High Dose,Xan_Hi,2.0,65-80,CAUCASIAN,1.0,F,Y,Y,Y,N,2013-01-13,2013-02-21
01-704-1009,CDISCPILOT01,ADTTE,704,1009,19.0,DAYS,1.0,3.0,RASH,VERBATIM_1452,Xanomeline Low Dose,Xan_Lo,1.0,>80,CAUCASIAN,1.0,M,Y,Y,Y,N,2013-08-27,2013-09-25
01-704-1010,CDISCPILOT01,ADTTE,704,1010,139.0,DAYS,0.0,,,,Placebo,Pbo,0.0,65-80,CAUCASIAN,1.0,M,Y,Y,Y,N,2014-02-21,2014-07-08
01-704-1017,CDISCPILOT01,ADTTE,704,1017,31.0,DAYS,1.0,5.0,RASH,VERBATIM_1452,Xanomeline High Dose,Xan_Hi,2.0,65-80,CAUCASIAN,1.0,M,Y,Y,Y,N,2013-10-06,2013-11-18
01-704-1025,CDISCPILOT01,ADTTE,704,1025,64.0,DAYS,0.0,,,,Xanomeline Low Dose,Xan_Lo,1.0,>80,CAUCASIAN,1.0,F,Y,Y,Y,N,2013-09-27,2013-10-24
01-704-1065,CDISCPILOT01,ADTTE,704,1065,4.0,DAYS,1.0,2.0,RASH,VERBATIM_1452,Xanomeline High Dose,Xan_Hi,2.0,65-80,CAUCASIAN,1.0,M,Y,Y,Y,N,2013-10-24,2013-12-22
01-704-1074,CDISCPILOT01,ADTTE,704,1074,1.0,DAYS,1.0,1.0,PRURITUS,VERBATIM_0216,Xanomeline High Dose,Xan_Hi,2.0,65-80,CAUCASIAN,1.0,F,Y,Y,Y,N,2014-01-22,2014-03-20
01-704-1093,CDISCPILOT01,ADTTE,704,1093,51.0,DAYS,1.0,3.0,RASH,VERBATIM_1452,Xanomeline High Dose,Xan_Hi,2.0,65-80,CAUCASIAN,1.0,M,Y,Y,Y,N,2013-03-15,2013-06-17
01-704-1114,CDISCPILOT01,ADTTE,704,1114,30.0,DAYS,1.0,1.0,ERYTHEMA,VERBATIM_1639,Xanomeline Low Dose,Xan_Lo,1.0,65-80,CAUCASIAN,1.0,M,Y,Y,Y,Y,2013-01-23,2013-07-07
01-704-1120,CDISCPILOT01,ADTTE,704,1120,22.0,DAYS,1.0,1.0,RASH,VERBATIM_1452,Xanomeline Low Dose,Xan_Lo,1.0,65-80,CAUCASIAN,1.0,F,Y,Y,Y,N,2013-12-02,2014-02-01
01-704-1127,CDISCPILOT01,ADTTE,704,1127,181.0,DAYS,0.0,,,,Placebo,Pbo,0.0,>80,CAUCASIAN,1.0,F,Y,Y,Y,Y,2013-10-02,2014-03-31
01-704-1135,CDISCPILOT01,ADTTE,704,1135,39.0,DAYS,1.0,1.0,RASH,VERBATIM_1452,Xanomeline Low Dose,Xan_Lo,1.0,65-80,CAUCASIAN,1.0,F,Y,Y,Y,Y,2013-10-31,2014-05-16
01-704-1164,CDISCPILOT01,ADTTE,704,1164,198.0,DAYS,0.0,,,,Placebo,Pbo,0.0,65-80,CAUCASIAN,1.0,F,Y,Y,Y,Y,2012-09-19,2013-04-04
01-704-1218,CDISCPILOT01,ADTTE,704,1218,190.0,DAYS,0.0,,,,Xanomeline Low Dose,Xan_Lo,1.0,>80,CAUCASIAN,1.0,F,Y,Y,Y,Y,2012-11-19,2013-05-27
01-704-1233,CDISCPILOT01,ADTTE,704,1233,116.0,DAYS,0.0,,,,Placebo,Pbo,0.0,>80,CAUCASIAN,1.0,F,Y,Y,Y,N,2013-03-21,2013-07-14
01-704-1241,CDISCPILOT01,ADTTE,704,1241,68.0,DAYS,0.0,,,,Xanomeline High Dose,Xan_Hi,2.0,>80,CAUCASIAN,1.0,M,Y,Y,Y,N,2013-08-25,2013-10-09
01-704-1260,CDISCPILOT01,ADTTE,704,1260,142.0,DAYS,0.0,,,,Placebo,Pbo,0.0,65-80,CAUCASIAN,1.0,F,Y,Y,Y,N,2012-08-30,2012-11-04
01-704-1266,CDISCPILOT01,ADTTE,704,1266,5.0,DAYS,1.0,2.0,ERYTHEMA,VERBATIM_0300,Xanomeline High Dose,Xan_Hi,2.0,>80,CAUCASIAN,1.0,M,Y,Y,Y,N,2013-10-13,2013-12-06
01-704-1323,CDISCPILOT01,ADTTE,704,1323,28.0,DAYS,1.0,2.0,RASH,VERBATIM_1452,Xanomeline Low Dose,Xan_Lo,1.0,65-80,CAUCASIAN,1.0,F,Y,Y,N,N,2013-07-08,2013-08-05
01-704-1325,CDISCPILOT01,ADTTE,704,1325,31.0,DAYS,1.0,1.0,RASH,VERBATIM_1452,Xanomeline Low Dose,Xan_Lo,1.0,>80,CAUCASIAN,1.0,M,Y,Y,Y,N,2014-04-23,2014-07-04
01-704-1332,CDISCPILOT01,ADTTE,704,1332,2.0,DAYS,1.0,1.0,RASH,VERBATIM_1452,Xanomeline High Dose,Xan_Hi,2.0,65-80,CAUCASIAN,1.0,M,Y,Y,Y,N,2013-12-09,2014-02-14
01-704-1351,CDISCPILOT01,ADTTE,704,1351,189.0,DAYS,0.0,,,,Placebo,Pbo,0.0,65-80,CAUCASIAN,1.0,M,Y,Y,Y,Y,2013-10-12,2014-04-18
01-704-1388,CDISCPILOT01,ADTTE,704,1388,195.0,DAYS,0.0,,,,Placebo,Pbo,0.0,>80,CAUCASIAN,1.0,M,Y,Y,Y,Y,2012-12-07,2013-06-11
01-704-1435,CDISCPILOT01,ADTTE,704,1435,57.0,DAYS,0.0,,,,Placebo,Pbo,0.0,65-80,CAUCASIAN,1.0,M,Y,Y,Y,N,2012-11-17,2013-01-09
01-704-1445,CDISCPILOT01,ADTTE,704,1445,175.0,DAYS,0.0,,,,Placebo,Pbo,0.0,65-80,CAUCASIAN,1.0,M,Y,Y,Y,Y,2014-05-11,2014-11-01
01-705-1018,CDISCPILOT01,ADTTE,705,1018,8.0,DAYS,0.0,,,,Placebo,Pbo,0.0,65-80,CAUCASIAN,1.0,F,Y,Y,N,N,2013-07-05,2013-07-12
01-705-1031,CDISCPILOT01,ADTTE,705,1031,29.0,DAYS,1.0,1.0,RASH,VERBATIM_1452,Xanomeline Low Dose,Xan_Lo,1.0,<65,"HISPANIC (MEXICAN - AMERICAN, MEXICO, CENTRAL AND SOUTH AMERICA)",5.0,F,Y,Y,Y,Y,2013-11-27,2014-05-11
01-705-1059,CDISCPILOT01,ADTTE,705,1059,90.0,DAYS,1.0,1.0,ERYTHEMA,VERBATIM_0314,Placebo,Pbo,0.0,65-80,CAUCASIAN,1.0,F,Y,Y,Y,N,2013-08-05,2013-12-05
01-705-1186,CDISCPILOT01,ADTTE,705,1186,31.0,DAYS,0.0,,,,Placebo,Pbo,0.0,>80,CAUCASIAN,1.0,F,Y,Y,N,N,2014-01-08,2014-01-26
01-705-1199,CDISCPILOT01,ADTTE,705,1199,14.0,DAYS,0.0,,,,Xanomeline Low Dose,Xan_Lo,1.0,>80,CAUCASIAN,1.0,M,Y,Y,Y,N,2013-09-16,2013-09-28
01-705-1280,CDISCPILOT01,ADTTE,705,1280,94.0,DAYS,1.0,1.0,PRURITUS,VERBATIM_0215,Xanomeline High Dose,Xan_Hi,2.0,<65,CAUCASIAN,1.0,F,Y,Y,Y,Y,2014-01-17,2014-07-25
01-705-1281,CDISCPILOT01,ADTTE,705,1281,64.0,DAYS,1.0,1.0,PRURITUS,VERBATIM_0215,Xanomeline High Dose,Xan_Hi,2.0,65-80,"AFRICAN DESCENT (NEGRO, BLACK)",2.0,F,Y,Y,Y,N,2013-11-28,2014-02-27
01-705-1282,CDISCPILOT01,ADTTE,705,1282,181.0,DAYS,0.0,,,,Placebo,Pbo,0.0,65-80,"AFRICAN DESCENT (NEGRO, BLACK)",2.0,F,Y,Y,Y,Y,2012-12-26,2013-06-24
01-705-1292,CDISCPILOT01,ADTTE,705,1292,15.0,DAYS,1.0,1.0,PRURITUS,VERBATIM_0373,Xanomeline Low Dose,Xan_Lo,1.0,<65,"AFRICAN DESCENT (NEGRO, BLACK)",2.0,F,Y,Y,Y,Y,2013-10-14,2014-05-13
01-705-1303,CDISCPILOT01,ADTTE,705,1303,52.0,DAYS,1.0,1.0,PRURITUS,VERBATIM_0215,Xanomeline High Dose,Xan_Hi,2.0,65-80,CAUCASIAN,1.0,M,Y,Y,Y,N,2013-12-16,2014-06-02
01-705-1310,CDISCPILOT01,ADTTE,705,1310,13.0,DAYS,1.0,1.0,RASH PRURITIC,VERBATIM_0158,Xanomeline High Dose,Xan_Hi,2.0,65-80,CAUCASIAN,1.0,F,Y,Y,Y,N,2013-11-02,2014-01-23
01-705-1349,CDISCPILOT01,ADTTE,705,1349,183.0,DAYS,0.0,,,,Placebo,Pbo,0.0,>80,"HISPANIC (MEXICAN - AMERICAN, MEXICO, CENTRAL AND SOUTH AMERICA)",5.0,F,Y,Y,Y,Y,2013-03-10,2013-09-08
01-705-1377,CDISCPILOT01,ADTTE,705,1377,63.0,DAYS,0.0,,,,Xanomeline High Dose,Xan_Hi,2.0,<65,"AFRICAN DESCENT (NEGRO, BLACK)",2.0,F,Y,Y,N,N,2014-01-04,2014-03-07
01-705-1382,CDISCPILOT01,ADTTE,705,1382,1.0,DAYS,0.0,,,,Xanomeline High Dose,Xan_Hi,2.0,>80,CAUCASIAN,1.0,M,Y,Y,N,N,2013-05-13,2013-05-13
01-705-1393,CDISCPILOT01,ADTTE,705,1393,167.0,DAYS,0.0,,,,Xanomeline Low Dose,Xan_Lo,1.0,>80,CAUCASIAN,1.0,F,Y,Y,Y,N,2012-09-07,2013-02-01
01-705-1431,CDISCPILOT01,ADTTE,705,1431,180.0,DAYS,0.0,,,,Xanomeline Low Dose,Xan_Lo,1.0,65-80,"HISPANIC (MEXICAN - AMERICAN, MEXICO, CENTRAL AND SOUTH AMERICA)",5.0,F,Y,Y,Y,Y,2013-06-23,2013-12-19
01-706-1041,CDISCPILOT01,ADTTE,706,1041,64.0,DAYS,1.0,6.0,PRURITUS,VERBATIM_0216,Placebo,Pbo,0.0,<65,"AFRICAN DESCENT (NEGRO, BLACK)",2.0,F,Y,Y,Y,Y,2013-12-31,2014-07-28
01-706-1049,CDISCPILOT01,ADTTE,706,1049,43.0,DAYS,0.0,,,,Xanomeline High Dose,Xan_Hi,2.0,<65,CAUCASIAN,1.0,F,Y,Y,Y,N,2013-05-14,2013-06-18
01-706-1384,CDISCPILOT01,ADTTE,706,1384,1.0,DAYS,1.0,1.0,ERYTHEMA,VERBATIM_0300,Xanomeline Low Dose,Xan_Lo,1.0,65-80,CAUCASIAN,1.0,F,Y,Y,Y,N,2012-09-15,2012-09-24
01-707-1037,CDISCPILOT01,ADTTE,707,1037,20.0,DAYS,0.0,,,,Xanomeline Low Dose,Xan_Lo,1.0,65-80,CAUCASIAN,1.0,F,Y,Y,Y,N,2013-12-20,2013-12-24
01-707-1206,CDISCPILOT01,ADTTE,707,1206,182.0,DAYS,0.0,,,,Placebo,Pbo,0.0,65-80,CAUCASIAN,1.0,M,Y,Y,Y,Y,2013-10-28,2014-04-26
01-708-1019,CDISCPILOT01,ADTTE,708,1019,35.0,DAYS,0.0,,,,Xanomeline Low Dose,Xan_Lo,1.0,65-80,CAUCASIAN,1.0,M,Y,Y,Y,N,2013-12-20,2014-01-01
01-708-1032,CDISCPILOT01,ADTTE,708,1032,18.0,DAYS,1.0,1.0,APPLICATION SITE VESICLES,VERBATIM_0318,Xanomeline Low Dose,Xan_Lo,1.0,<65,CAUCASIAN,1.0,M,Y,Y,Y,N,2013-02-09,2013-03-01
01-708-1084,CDISCPILOT01,ADTTE,708,1084,187.0,DAYS,0.0,,,,Xanomeline Low Dose,Xan_Lo,1.0,65-80,CAUCASIAN,1.0,F,Y,Y,Y,Y,2013-05-09,2013-11-11
01-708-1087,CDISCPILOT01,ADTTE,708,1087,189.0,DAYS,0.0,,,,Placebo,Pbo,0.0,65-80,CAUCASIAN,1.0,F,Y,Y,Y,Y,2012-10-22,2013-04-28
01-708-1158,CDISCPILOT01,ADTTE,708,1158,43.0,DAYS,1.0,2.0,ERYTHEMA,VERBATIM_0300,Placebo,Pbo,0.0,>80,CAUCASIAN,1.0,F,Y,Y,Y,N,2014-02-08,2014-03-21
01-708-1171,CDISCPILOT01,ADTTE,708,1171,181.0,DAYS,0.0,,,,Placebo,Pbo,0.0,65-80,CAUCASIAN,1.0,F,Y,Y,Y,Y,2012-12-06,2013-06-04
01-708-1178,CDISCPILOT01,ADTTE,708,1178,71.0,DAYS,1.0,3.0,APPLICATION SITE PRURITUS,VERBATIM_1219,Xanomeline High Dose,Xan_Hi,2.0,65-80,"AFRICAN DESCENT (NEGRO, BLACK)",2.0,F,Y,Y,Y,N,2013-12-29,2014-04-06
01-708-1213,CDISCPILOT01,ADTTE,708,1213,18.0,DAYS,0.0,,,,Xanomeline High Dose,Xan_Hi,2.0,65-80,CAUCASIAN,1.0,F,Y,Y,N,N,2013-02-09,2013-02-22
01-708-1216,CDISCPILOT01,ADTTE,708,1216,14.0,DAYS,1.0,1.0,APPLICATION SITE PRURITUS,VERBATIM_0953,Xanomeline High Dose,Xan_Hi,2.0,65-80,CAUCASIAN,1.0,M,Y,Y,Y,N,2012-10-24,2012-11-29
01-708-1236,CDISCPILOT01,ADTTE,708,1236,6.0,DAYS,0.0,,,,Xanomeline High Dose,Xan_Hi,2.0,>80,CAUCASIAN,1.0,F,Y,Y,N,N,2013-09-21,2013-09-21
01-708-1253,CDISCPILOT01,ADTTE,708,1253,183.0,DAYS,0.0,,,,Placebo,Pbo,0.0,<65,CAUCASIAN,1.0,M,Y,Y,Y,Y,2013-05-07,2013-11-05
01-708-1272,CDISCPILOT01,ADTTE,708,1272,22.0,DAYS,1.0,4.0,APPLICATION SITE DERMATITIS,VERBATIM_1621,Xanomeline Low Dose,Xan_Lo,1.0,>80,CAUCASIAN,1.0,M,Y,Y,Y,N,2013-02-06,2013-03-22
01-708-1286,CDISCPILOT01,ADTTE,708,1286,3.0,DAYS,1.0,1.0,APPLICATION SITE PRURITUS,VERBATIM_1219,Placebo,Pbo,0.0,65-80,"AFRICAN DESCENT (NEGRO, BLACK)",2.0,F,Y,Y,Y,Y,2013-09-10,2014-03-08
01-708-1296,CDISCPILOT01,ADTTE,708,1296,83.0,DAYS,1.0,3.0,APPLICATION SITE PRURITUS,VERBATIM_0445,Placebo,Pbo,0.0,<65,"AFRICAN DESCENT (NEGRO, BLACK)",2.0,M,Y,Y,Y,Y,2013-06-14,2013-12-12
01-708-1297,CDISCPILOT01,ADTTE,708,1297,68.0,DAYS,1.0,1.0,APPLICATION SITE PRURITUS,VERBATIM_1038,Xanomeline Low Dose,Xan_Lo,1.0,<65,CAUCASIAN,1.0,M,Y,Y,Y,N,2013-01-25,2013-05-03
01-708-1316,CDISCPILOT01,ADTTE,708,1316,177.0,DAYS,1.0,2.0,APPLICATION SITE ERYTHEMA,VERBATIM_0178,Placebo,Pbo,0.0,65-80,CAUCASIAN,1.0,F,Y,Y,Y,Y,2013-08-23,2014-03-01
01-708-1336,CDISCPILOT01,ADTTE,708,1336,37.0,DAYS,1.0,2.0,APPLICATION SITE PRURITUS,VERBATIM_0445,Xanomeline High Dose,Xan_Hi,2.0,65-80,CAUCASIAN,1.0,M,Y,Y,Y,Y,2012-12-07,2013-06-05
01-708-1342,CDISCPILOT01,ADTTE,708,1342,182.0,DAYS,0.0,,,,Placebo,Pbo,0.0,<65,CAUCASIAN,1.0,F,Y,Y,Y,Y,2012-12-29,2013-06-28
01-708-1347,CDISCPILOT01,ADTTE,708,1347,55.0,DAYS,1.0,1.0,PRURITUS,VERBATIM_0216,Xanomeline High Dose,Xan_Hi,2.0,<65,CAUCASIAN,1.0,F,Y,Y,Y,N,2013-04-20,2013-06-18
01-708-1348,CDISCPILOT01,ADTTE,708,1348,119.0,DAYS,1.0,3.0,APPLICATION SITE PRURITUS,VERBATIM_0445,Xanomeline Low Dose,Xan_Lo,1.0,65-80,CAUCASIAN,1.0,F,Y,Y,Y,Y,2013-08-05,2014-02-13
01-708-1353,CDISCPILOT01,ADTTE,708,1353,69.0,DAYS,0.0,,,,Xanomeline Low Dose,Xan_Lo,1.0,>80,"AFRICAN DESCENT (NEGRO, BLACK)",2.0,F,Y,Y,Y,N,2013-07-04,2013-08-28
01-708-1372,CDISCPILOT01,ADTTE,708,1372,29.0,DAYS,0.0,,,,Xanomeline High Dose,Xan_Hi,2.0,>80,CAUCASIAN,1.0,M,Y,Y,N,N,2013-04-12,2013-04-19
01-708-1378,CDISCPILOT01,ADTTE,708,1378,148.0,DAYS,0.0,,,,Placebo,Pbo,0.0,65-80,"AFRICAN DESCENT (NEGRO, BLACK)",2.0,M,Y,Y,Y,N,2013-09-03,2014-01-28
01-708-1406,CDISCPILOT01,ADTTE,708,1406,189.0,DAYS,0.0,,,,Xanomeline High Dose,Xan_Hi,2.0,65-80,CAUCASIAN,1.0,F,Y,Y,Y,Y,2013-12-26,2014-07-02
01-708-1428,CDISCPILOT01,ADTTE,708,1428,32.0,DAYS,1.0,2.0,APPLICATION SITE PRURITUS,VERBATIM_1038,Xanomeline Low Dose,Xan_Lo,1.0,>80,CAUCASIAN,1.0,F,Y,Y,Y,N,2013-11-09,2013-12-14
01-709-1001,CDISCPILOT01,ADTTE,709,1001,183.0,DAYS,0.0,,,,Placebo,Pbo,0.0,65-80,CAUCASIAN,1.0,F,Y,Y,Y,Y,2013-10-08,2014-04-08
01-709-1007,CDISCPILOT01,ADTTE,709,1007,17.0,DAYS,1.0,1.0,APPLICATION SITE DERMATITIS,VERBATIM_1481,Xanomeline Low Dose,Xan_Lo,1.0,<65,CAUCASIAN,1.0,F,Y,Y,N,N,2012-07-31,2012-08-28
01-709-1020,CDISCPILOT01,ADTTE,709,1020,27.0,DAYS,1.0,1.0,APPLICATION SITE DERMATITIS,VERBATIM_0684,Xanomeline Low Dose,Xan_Lo,1.0,65-80,CAUCASIAN,1.0,F,Y,Y,Y,Y,2012-12-01,2013-06-01
01-709-1029,CDISCPILOT01,ADTTE,709,1029,24.0,DAYS,1.0,2.0,APPLICATION SITE ERYTHEMA,VERBATIM_0716,Xanomeline High Dose,Xan_Hi,2.0,>80,CAUCASIAN,1.0,M,Y,Y,Y,Y,2012-12-25,2013-06-26
01-709-1081,CDISCPILOT01,ADTTE,709,1081,80.0,DAYS,1.0,1.0,RASH,VERBATIM_1452,Xanomeline Low Dose,Xan_Lo,1.0,>80,CAUCASIAN,1.0,F,Y,Y,Y,N,2014-01-18,2014-04-27
01-709-1088,CDISCPILOT01,ADTTE,709,1088,27.0,DAYS,1.0,1.0,APPLICATION SITE DERMATITIS,VERBATIM_0968,Placebo,Pbo,0.0,65-80,CAUCASIAN,1.0,M,Y,Y,Y,Y,2014-04-12,2014-10-09
01-709-1099,CDISCPILOT01,ADTTE,709,1099,19.0,DAYS,1.0,2.0,APPLICATION SITE DERMATITIS,VERBATIM_1069,Xanomeline High Dose,Xan_Hi,2.0,65-80,CAUCASIAN,1.0,F,Y,Y,Y,Y,2013-10-25,2014-04-25
01-709-1102,CDISCPILOT01,ADTTE,709,1102,28.0,DAYS,1.0,1.0,APPLICATION SITE DERMATITIS,VERBATIM_1069,Xanomeline Low Dose,Xan_Lo,1.0,65-80,CAUCASIAN,1.0,F,Y,Y,Y,N,2013-01-15,2013-03-27
01-709-1168,CDISCPILOT01,ADTTE,709,1168,16.0,DAYS,1.0,1.0,SKIN IRRITATION,VERBATIM_1165,Xanomeline High Dose,Xan_Hi,2.0,65-80,CAUCASIAN,1.0,F,Y,Y,Y,N,2013-08-02,2013-09-26
01-709-1217,CDISCPILOT01,ADTTE,709,1217,23.0,DAYS,1.0,3.0,APPLICATION SITE DERMATITIS,VERBATIM_1036,Xanomeline Low Dose,Xan_Lo,1.0,65-80,CAUCASIAN,1.0,M,Y,Y,Y,N,2013-03-04,2013-06-11
01-709-1238,CDISCPILOT01,ADTTE,709,1238,16.0,DAYS,1.0,2.0,APPLICATION SITE DERMATITIS,VERBATIM_1069,Xanomeline High Dose,Xan_Hi,2.0,65-80,CAUCASIAN,1.0,M,Y,Y,Y,N,2013-05-15,2013-08-06
01-709-1259,CDISCPILOT01,ADTTE,709,1259,139.0,DAYS,0.0,,,,Placebo,Pbo,0.0,>80,CAUCASIAN,1.0,M,Y,Y,Y,N,2013-01-26,2013-06-13
01-709-1285,CDISCPILOT01,ADTTE,709,1285,27.0,DAYS,1.0,2.0,APPLICATION SITE DERMATITIS,VERBATIM_1329,Xanomeline Low Dose,Xan_Lo,1.0,>80,CAUCASIAN,1.0,M,Y,Y,Y,N,2013-03-24,2013-05-23
01-709-1301,CDISCPILOT01,ADTTE,709,1301,183.0,DAYS,0.0,,,,Placebo,Pbo,0.0,<65,CAUCASIAN,1.0,F,Y,Y,Y,Y,2013-07-19,2014-01-17
01-709-1306,CDISCPILOT01,ADTTE,709,1306,77.0,DAYS,1.0,1.0,RASH,VERBATIM_1724,Placebo,Pbo,0.0,<65,CAUCASIAN,1.0,F,Y,Y,Y,N,2014-02-03,2014-06-16
01-709-1309,CDISCPILOT01,ADTTE,709,1309,2.0,DAYS,1.0,7.0,RASH MACULO-PAPULAR,VERBATIM_1060,Xanomeline High Dose,Xan_Hi,2.0,65-80,CAUCASIAN,1.0,M,Y,Y,Y,Y,2013-06-19,2013-12-19
01-709-1312,CDISCPILOT01,ADTTE,709,1312,28.0,DAYS,1.0,1.0,APPLICATION SITE DERMATITIS,VERBATIM_0684,Placebo,Pbo,0.0,65-80,CAUCASIAN,1.0,F,Y,Y,Y,Y,2014-04-20,2014-10-19
01-709-1326,CDISCPILOT01,ADTTE,709,1326,27.0,DAYS,1.0,1.0,APPLICATION SITE DERMATITIS,VERBATIM_0684,Xanomeline Low Dose,Xan_Lo,1.0,65-80,CAUCASIAN,1.0,F,Y,Y,Y,Y,2013-04-05,2013-10-02
01-709-1329,CDISCPILOT01,ADTTE,709,1329,15.0,DAYS,0.0,,,,Xanomeline High Dose,Xan_Hi,2.0,65-80,CAUCASIAN,1.0,M,Y,Y,Y,N,2013-08-15,2013-08-25
01-709-1339,CDISCPILOT01,ADTTE,709,1339,184.0,DAYS,0.0,,,,Placebo,Pbo,0.0,>80,CAUCASIAN,1.0,M,Y,Y,Y,Y,2012-12-23,2013-06-24
01-709-1424,CDISCPILOT01,ADTTE,709,1424,6.0,DAYS,0.0,,,,Xanomeline High Dose,Xan_Hi,2.0,65-80,CAUCASIAN,1.0,M,Y,Y,Y,N,2013-03-03,2013-03-07
01-710-1002,CDISCPILOT01,ADTTE,710,1002,5.0,DAYS,0.0,,,,Xanomeline Low Dose,Xan_Lo,1.0,>80,CAUCASIAN,1.0,M,Y,Y,Y,N,2014-01-14,2014-01-18
01-710-1006,CDISCPILOT01,ADTTE,710,1006,20.0,DAYS,1.0,3.0,SKIN IRRITATION,VERBATIM_1630,Xanomeline High Dose,Xan_Hi,2.0,65-80,CAUCASIAN,1.0,M,Y,Y,Y,Y,2013-02-10,2013-08-09
01-710-1021,CDISCPILOT01,ADTTE,710,1021,25.0,DAYS,1.0,2.0,PRURITUS,VERBATIM_0216,Xanomeline High Dose,Xan_Hi,2.0,65-80,"AFRICAN DESCENT (NEGRO, BLACK)",2.0,M,Y,Y,N,N,2013-09-27,2013-10-29
01-710-1027,CDISCPILOT01,ADTTE,710,1027,183.0,DAYS,0.0,,,,Placebo,Pbo,0.0,>80,CAUCASIAN,1.0,M,Y,Y,Y,Y,2014-02-28,2014-08-29
01-710-1045,CDISCPILOT01,ADTTE,710,1045,30.0,DAYS,1.0,3.0,SKIN IRRITATION,VERBATIM_1630,Xanomeline Low Dose,Xan_Lo,1.0,>80,CAUCASIAN,1.0,F,Y,Y,Y,N,2013-06-03,2013-08-13
01-710-1053,CDISCPILOT01,ADTTE,710,1053,34.0,DAYS,1.0,1.0,PRURITUS,VERBATIM_0216,Xanomeline Low Dose,Xan_Lo,1.0,>80,CAUCASIAN,1.0,F,Y,Y,Y,N,2012-12-26,2013-02-10
01-710-1060,CDISCPILOT01,ADTTE,710,1060,21.0,DAYS,1.0,4.0,APPLICATION SITE INDURATION,VERBATIM_0685,Placebo,Pbo,0.0,>80,CAUCASIAN,1.0,M,Y,Y,Y,Y,2013-01-01,2013-07-05
01-710-1070,CDISCPILOT01,ADTTE,710,1070,96.0,DAYS,1.0,2.0,PRURITUS,VERBATIM_0373,Xanomeline High Dose,Xan_Hi,2.0,>80,CAUCASIAN,1.0,F,Y,Y,Y,N,2012-09-08,2013-01-22
01-710-1077,CDISCPILOT01,ADTTE,710,1077,26.0,DAYS,1.0,1.0,APPLICATION SITE DERMATITIS,VERBATIM_1298,Placebo,Pbo,0.0,65-80,CAUCASIAN,1.0,F,Y,Y,Y,Y,2013-11-17,2014-05-18
01-710-1078,CDISCPILOT01,ADTTE,710,1078,188.0,DAYS,0.0,,,,Placebo,Pbo,0.0,>80,CAUCASIAN,1.0,F,Y,Y,Y,Y,2013-09-17,2014-03-23
01-710-1083,CDISCPILOT01,ADTTE,710,1083,13.0,DAYS,0.0,,,,Placebo,Pbo,0.0,>80,CAUCASIAN,1.0,F,Y,Y,N,N,2013-07-22,2013-08-01
01-710-1137,CDISCPILOT01,ADTTE,710,1137,3.0,DAYS,1.0,1.0,PRURITUS,VERBATIM_0216,Xanomeline High Dose,Xan_Hi,2.0,65-80,"AFRICAN DESCENT (NEGRO, BLACK)",2.0,F,Y,Y,N,N,2013-10-11,2013-11-13
01-710-1142,CDISCPILOT01,ADTTE,710,1142,22.0,DAYS,0.0,,,,Xanomeline High Dose,Xan_Hi,2.0,65-80,CAUCASIAN,1.0,F,Y,Y,Y,N,2012-10-02,2012-10-20
01-710-1154,CDISCPILOT01,ADTTE,710,1154,21.0,DAYS,1.0,1.0,SKIN IRRITATION,VERBATIM_1630,Xanomeline Low Dose,Xan_Lo,1.0,>80,"HISPANIC (MEXICAN - AMERICAN, MEXICO, CENTRAL AND SOUTH AMERICA)",5.0,M,Y,Y,Y,N,2014-03-29,2014-04-27
01-710-1166,CDISCPILOT01,ADTTE,710,1166,121.0,DAYS,0.0,,,,Xanomeline Low Dose,Xan_Lo,1.0,>80,CAUCASIAN,1.0,F,Y,Y,Y,N,2012-11-30,2013-03-19
01-710-1183,CDISCPILOT01,ADTTE,710,1183,183.0,DAYS,0.0,,,,Placebo,Pbo,0.0,65-80,CAUCASIAN,1.0,F,Y,Y,Y,Y,2013-11-16,2014-05-17
01-710-1187,CDISCPILOT01,ADTTE,710,1187,44.0,DAYS,1.0,1.0,APPLICATION SITE IRRITATION,VERBATIM_1336,Xanomeline High Dose,Xan_Hi,2.0,65-80,CAUCASIAN,1.0,F,Y,Y,Y,Y,2012-11-10,2013-05-12
01-710-1235,CDISCPILOT01,ADTTE,710,1235,126.0,DAYS,1.0,3.0,APPLICATION SITE PRURITUS,VERBATIM_1219,Xanomeline Low Dose,Xan_Lo,1.0,<65,"HISPANIC (MEXICAN - AMERICAN, MEXICO, CENTRAL AND SOUTH AMERICA)",5.0,F,Y,Y,Y,Y,2012-09-26,2013-03-27
01-710-1249,CDISCPILOT01,ADTTE,710,1249,46.0,DAYS,1.0,1.0,PRURITUS,VERBATIM_0373,Xanomeline High Dose,Xan_Hi,2.0,65-80,CAUCASIAN,1.0,M,Y,Y,Y,Y,2013-12-28,2014-06-28
01-710-1264,CDISCPILOT01,ADTTE,710,1264,70.0,DAYS,1.0,2.0,PRURITUS,VERBATIM_0215,Placebo,Pbo,0.0,65-80,CAUCASIAN,1.0,M,Y,Y,Y,N,2013-06-13,2013-10-11
01-710-1270,CDISCPILOT01,ADTTE,710,1270,12.0,DAYS,1.0,1.0,ERYTHEMA,VERBATIM_0300,Xanomeline Low Dose,Xan_Lo,1.0,>80,CAUCASIAN,1.0,F,Y,Y,Y,N,2014-02-12,2014-03-01
01-710-1271,CDISCPILOT01,ADTTE,710,1271,67.0,DAYS,0.0,,,,Placebo,Pbo,0.0,>80,CAUCASIAN,1.0,F,Y,Y,N,N,2012-09-27,2012-11-21
01-710-1278,CDISCPILOT01,ADTTE,710,1278,46.0,DAYS,1.0,2.0,RASH,VERBATIM_1452,Xanomeline High Dose,Xan_Hi,2.0,>80,CAUCASIAN,1.0,M,Y,Y,Y,N,2012-12-24,2013-02-26
01-710-1300,CDISCPILOT01,ADTTE,710,1300,48.0,DAYS,1.0,1.0,PRURITUS,VERBATIM_0216,Xanomeline Low Dose,Xan_Lo,1.0,65-80,CAUCASIAN,1.0,F,Y,Y,Y,N,2012-12-15,2013-02-15
01-710-1314,CDISCPILOT01,ADTTE,710,1314,32.0,DAYS,0.0,,,,Placebo,Pbo,0.0,65-80,CAUCASIAN,1.0,F,Y,Y,N,N,2013-04-24,2013-05-23
01-710-1315,CDISCPILOT01,ADTTE,710,1315,77.0,DAYS,1.0,2.0,PRURITUS,VERBATIM_0215,Placebo,Pbo,0.0,>80,CAUCASIAN,1.0,F,Y,Y,Y,N,2013-02-27,2013-07-06
01-710-1354,CDISCPILOT01,ADTTE,710,1354,50.0,DAYS,1.0,1.0,ERYTHEMA,VERBATIM_0300,Xanomeline High Dose,Xan_Hi,2.0,65-80,CAUCASIAN,1.0,M,Y,Y,Y,Y,2012-11-11,2013-05-01
01-710-1358,CDISCPILOT01,ADTTE,710,1358,97.0,DAYS,1.0,1.0,RASH,VERBATIM_1452,Xanomeline Low Dose,Xan_Lo,1.0,>80,CAUCASIAN,1.0,M,Y,Y,Y,Y,2012-09-17,2013-02-09
01-710-1368,CDISCPILOT01,ADTTE,710,1368,184.0,DAYS,0.0,,,,Placebo,Pbo,0.0,>80,CAUCASIAN,1.0,F,Y,Y,Y,Y,2013-10-23,2014-04-24
01-710-1385,CDISCPILOT01,ADTTE,710,1385,51.0,DAYS,1.0,4.0,PRURITUS,VERBATIM_0216,Xanomeline Low Dose,Xan_Lo,1.0,65-80,CAUCASIAN,1.0,M,Y,Y,Y,N,2012-10-29,2013-02-18
01-710-1408,CDISCPILOT01,ADTTE,710,1408,51.0,DAYS,1.0,3.0,ERYTHEMA,VERBATIM_0300,Xanomeline High Dose,Xan_Hi,2.0,65-80,CAUCASIAN,1.0,M,Y,Y,Y,Y,2013-01-05,2013-07-12
01-711-1012,CDISCPILOT01,ADTTE,711,1012,14.0,DAYS,1.0,1.0,APPLICATION SITE DERMATITIS,VERBATIM_0950,Xanomeline High Dose,Xan_Hi,2.0,65-80,CAUCASIAN,1.0,F,Y,Y,Y,N,2013-04-03,2013-04-29
01-711-1036,CDISCPILOT01,ADTTE,711,1036,197.0,DAYS,0.0,,,,Placebo,Pbo,0.0,65-80,"AFRICAN DESCENT (NEGRO, BLACK)",2.0,M,Y,Y,Y,Y,2012-07-29,2013-02-10
01-711-1143,CDISCPILOT01,ADTTE,711,1143,46.0,DAYS,1.0,8.0,APPLICATION SITE DERMATITIS,VERBATIM_0950,Xanomeline Low Dose,Xan_Lo,1.0,65-80,CAUCASIAN,1.0,F,Y,Y,Y,N,2013-04-03,2013-05-30
01-711-1433,CDISCPILOT01,ADTTE,711,1433,11.0,DAYS,0.0,,,,Xanomeline High Dose,Xan_Hi,2.0,>80,CAUCASIAN,1.0,F,Y,Y,N,N,2013-01-27,2013-02-05
01-713-1043,CDISCPILOT01,ADTTE,713,1043,12.0,DAYS,1.0,1.0,APPLICATION SITE ERYTHEMA,VERBATIM_0552,Xanomeline Low Dose,Xan_Lo,1.0,65-80,CAUCASIAN,1.0,F,Y,Y,Y,Y,2013-09-15,2014-03-24
01-713-1073,CDISCPILOT01,ADTTE,713,1073,107.0,DAYS,1.0,1.0,APPLICATION SITE PRURITUS,VERBATIM_1219,Xanomeline Low Dose,Xan_Lo,1.0,65-80,"AFRICAN DESCENT (NEGRO, BLACK)",2.0,F,Y,Y,Y,Y,2014-03-30,2014-10-05
01-713-1106,CDISCPILOT01,ADTTE,713,1106,188.0,DAYS,0.0,,,,Xanomeline High Dose,Xan_Hi,2.0,65-80,CAUCASIAN,1.0,M,Y,Y,Y,Y,2012-10-31,2013-05-06
01-713-1141,CDISCPILOT01,ADTTE,713,1141,22.0,DAYS,1.0,1.0,RASH PRURITIC,VERBATIM_1375,Xanomeline High Dose,Xan_Hi,2.0,65-80,CAUCASIAN,1.0,M,Y,Y,N,N,2013-05-31,2013-07-01
01-713-1179,CDISCPILOT01,ADTTE,713,1179,181.0,DAYS,0.0,,,,Placebo,Pbo,0.0,<65,CAUCASIAN,1.0,F,Y,Y,Y,Y,2013-08-09,2014-02-05
01-713-1209,CDISCPILOT01,ADTTE,713,1209,7.0,DAYS,1.0,2.0,APPLICATION SITE PRURITUS,VERBATIM_1219,Xanomeline High Dose,Xan_Hi,2.0,65-80,CAUCASIAN,1.0,F,Y,Y,Y,Y,2013-05-27,2013-11-22
01-713-1256,CDISCPILOT01,ADTTE,713,1256,42.0,DAYS,1.0,1.0,APPLICATION SITE DERMATITIS,VERBATIM_1298,Placebo,Pbo,0.0,65-80,CAUCASIAN,1.0,M,Y,Y,Y,Y,2012-09-19,2013-03-25
01-713-1269,CDISCPILOT01,ADTTE,713,1269,7.0,DAYS,1.0,1.0,APPLICATION SITE ERYTHEMA,VERBATIM_0232,Placebo,Pbo,0.0,65-80,CAUCASIAN,1.0,M,Y,Y,Y,Y,2014-01-27,2014-07-28
01-713-1448,CDISCPILOT01,ADTTE,713,1448,60.0,DAYS,1.0,1.0,APPLICATION SITE IRRITATION,VERBATIM_1336,Xanomeline Low Dose,Xan_Lo,1.0,65-80,CAUCASIAN,1.0,F,Y,Y,Y,N,2014-01-19,2014-05-16
01-714-1035,CDISCPILOT01,ADTTE,714,1035,183.0,DAYS,0.0,,,,Placebo,Pbo,0.0,>80,CAUCASIAN,1.0,F,Y,Y,Y,Y,2014-04-17,2014-10-16
01-714-1068,CDISCPILOT01,ADTTE,714,1068,5.0,DAYS,1.0,1.0,SKIN IRRITATION,VERBATIM_0019,Xanomeline Low Dose,Xan_Lo,1.0,65-80,CAUCASIAN,1.0,F,Y,Y,Y,N,2013-08-08,2013-10-08
01-714-1195,CDISCPILOT01,ADTTE,714,1195,18.0,DAYS,1.0,3.0,APPLICATION SITE ERYTHEMA,VERBATIM_0907,Xanomeline Low Dose,Xan_Lo,1.0,65-80,CAUCASIAN,1.0,M,Y,Y,Y,Y,2013-04-26,2013-10-23
01-714-1288,CDISCPILOT01,ADTTE,714,1288,39.0,DAYS,1.0,3.0,ERYTHEMA,VERBATIM_0300,Xanomeline High Dose,Xan_Hi,2.0,65-80,"AFRICAN DESCENT (NEGRO, BLACK)",2.0,M,Y,Y,Y,Y,2013-12-04,2014-06-17
01-714-1375,CDISCPILOT01,ADTTE,714,1375,33.0,DAYS,1.0,1.0,SKIN IRRITATION,VERBATIM_0290,Placebo,Pbo,0.0,65-80,CAUCASIAN,1.0,F,Y,Y,Y,Y,2013-02-26,2013-09-07
01-714-1425,CDISCPILOT01,ADTTE,714,1425,8.0,DAYS,0.0,,,,Xanomeline High Dose,Xan_Hi,2.0,>80,CAUCASIAN,1.0,M,Y,Y,Y,N,2013-08-15,2013-08-19
01-715-1085,CDISCPILOT01,ADTTE,715,1085,184.0,DAYS,0.0,,,,Xanomeline Low Dose,Xan_Lo,1.0,65-80,CAUCASIAN,1.0,F,Y,Y,Y,Y,2013-02-16,2013-08-18
01-715-1107,CDISCPILOT01,ADTTE,715,1107,71.0,DAYS,1.0,1.0,DERMATITIS CONTACT,VERBATIM_0387,Xanomeline Low Dose,Xan_Lo,1.0,65-80,CAUCASIAN,1.0,M,Y,Y,Y,N,2013-02-26,2013-05-07
01-715-1155,CDISCPILOT01,ADTTE,715,1155,135.0,DAYS,0.0,,,,Placebo,Pbo,0.0,<65,CAUCASIAN,1.0,F,Y,Y,N,N,2013-12-13,2014-01-25
01-715-1207,CDISCPILOT01,ADTTE,715,1207,196.0,DAYS,0.0,,,,Placebo,Pbo,0.0,65-80,CAUCASIAN,1.0,F,Y,Y,Y,Y,2012-11-18,2013-05-27
01-715-1319,CDISCPILOT01,ADTTE,715,1319,30.0,DAYS,0.0,,,,Xanomeline High Dose,Xan_Hi,2.0,65-80,CAUCASIAN,1.0,M,Y,Y,Y,N,2013-02-17,2013-03-05
01-715-1321,CDISCPILOT01,ADTTE,715,1321,70.0,DAYS,1.0,3.0,APPLICATION SITE REACTION,VERBATIM_1688,Xanomeline High Dose,Xan_Hi,2.0,65-80,CAUCASIAN,1.0,F,Y,Y,Y,N,2014-02-11,2014-04-21
01-715-1397,CDISCPILOT01,ADTTE,715,1397,184.0,DAYS,0.0,,,,Placebo,Pbo,0.0,65-80,CAUCASIAN,1.0,F,Y,Y,Y,Y,2013-04-03,2013-10-02
01-715-1405,CDISCPILOT01,ADTTE,715,1405,8.0,DAYS,0.0,,,,Xanomeline Low Dose,Xan_Lo,1.0,65-80,CAUCASIAN,1.0,M,Y,Y,Y,N,2013-07-06,2013-07-07
01-716-1024,CDISCPILOT01,ADTTE,716,1024,196.0,DAYS,0.0,,,,Placebo,Pbo,0.0,>80,CAUCASIAN,1.0,F,Y,Y,Y,Y,2012-07-09,2013-01-20
01-716-1026,CDISCPILOT01,ADTTE,716,1026,16.0,DAYS,1.0,2.0,PRURITUS,VERBATIM_0216,Placebo,Pbo,0.0,65-80,CAUCASIAN,1.0,F,Y,Y,Y,Y,2014-04-02,2014-10-16
01-716-1030,CDISCPILOT01,ADTTE,716,1030,14.0,DAYS,0.0,,,,Xanomeline High Dose,Xan_Hi,2.0,>80,CAUCASIAN,1.0,F,Y,Y,Y,N,2013-12-28,2014-01-02
01-716-1044,CDISCPILOT01,ADTTE,716,1044,191.0,DAYS,0.0,,,,Placebo,Pbo,0.0,65-80,CAUCASIAN,1.0,M,Y,Y,Y,Y,2013-04-27,2013-11-03
01-716-1063,CDISCPILOT01,ADTTE,716,1063,57.0,DAYS,1.0,3.0,PRURITUS,VERBATIM_0216,Xanomeline Low Dose,Xan_Lo,1.0,65-80,CAUCASIAN,1.0,M,Y,Y,Y,N,2013-05-09,2013-08-25
01-716-1071,CDISCPILOT01,ADTTE,716,1071,55.0,DAYS,0.0,,,,Xanomeline High Dose,Xan_Hi,2.0,65-80,CAUCASIAN,1.0,F,Y,Y,Y,N,2013-06-08,2013-08-01
01-716-1094,CDISCPILOT01,ADTTE,716,1094,39.0,DAYS,0.0,,,,Xanomeline Low Dose,Xan_Lo,1.0,>80,CAUCASIAN,1.0,M,Y,Y,Y,N,2012-12-19,2013-01-24
01-716-1103,CDISCPILOT01,ADTTE,716,1103,112.0,DAYS,1.0,1.0,PRURITUS,VERBATIM_0216,Xanomeline Low Dose,Xan_Lo,1.0,65-80,CAUCASIAN,1.0,M,Y,Y,Y,Y,2014-03-20,2014-09-20
01-716-1108,CDISCPILOT01,ADTTE,716,1108,79.0,DAYS,1.0,2.0,PRURITUS,VERBATIM_0216,Placebo,Pbo,0.0,>80,CAUCASIAN,1.0,F,Y,Y,Y,Y,2013-02-12,2013-08-10
01-716-1151,CDISCPILOT01,ADTTE,716,1151,43.0,DAYS,1.0,2.0,PRURITUS,VERBATIM_0216,Xanomeline Low Dose,Xan_Lo,1.0,>80,CAUCASIAN,1.0,F,Y,Y,Y,N,2013-02-01,2013-05-11
01-716-1157,CDISCPILOT01,ADTTE,716,1157,24.0,DAYS,1.0,2.0,ERYTHEMA,VERBATIM_0300,Xanomeline Low Dose,Xan_Lo,1.0,>80,CAUCASIAN,1.0,M,Y,Y,Y,Y,2013-10-02,2014-04-04
01-716-1160,CDISCPILOT01,ADTTE,716,1160,35.0,DAYS,1.0,1.0,PRURITUS,VERBATIM_0216,Placebo,Pbo,0.0,>80,CAUCASIAN,1.0,F,Y,Y,Y,Y,2013-04-05,2013-10-11
01-716-1167,CDISCPILOT01,ADTTE,716,1167,41.0,DAYS,1.0,1.0,PRURITUS,VERBATIM_0658,Xanomeline Low Dose,Xan_Lo,1.0,65-80,CAUCASIAN,1.0,M,Y,Y,Y,Y,2012-10-08,2013-04-12
01-716-1177,CDISCPILOT01,ADTTE,716,1177,185.0,DAYS,0.0,,,,Placebo,Pbo,0.0,65-80,CAUCASIAN,1.0,M,Y,Y,Y,Y,2014-09-02,2015-03-05
01-716-1189,CDISCPILOT01,ADTTE,716,1189,89.0,DAYS,1.0,3.0,PRURITUS,VERBATIM_0216,Xanomeline High Dose,Xan_Hi,2.0,>80,CAUCASIAN,1.0,M,Y,Y,Y,N,2012-10-09,2013-02-27
01-716-1229,CDISCPILOT01,ADTTE,716,1229,1.0,DAYS,1.0,1.0,PRURITUS,VERBATIM_0216,Xanomeline High Dose,Xan_Hi,2.0,65-80,CAUCASIAN,1.0,F,Y,Y,Y,N,2013-02-20,2013-03-31
01-716-1298,CDISCPILOT01,ADTTE,716,1298,15.0,DAYS,1.0,1.0,ERYTHEMA,VERBATIM_0300,Xanomeline Low Dose,Xan_Lo,1.0,65-80,CAUCASIAN,1.0,F,Y,Y,Y,N,2013-04-08,2013-06-28
01-716-1308,CDISCPILOT01,ADTTE,716,1308,24.0,DAYS,1.0,1.0,ERYTHEMA,VERBATIM_0300,Placebo,Pbo,0.0,65-80,CAUCASIAN,1.0,F,Y,Y,Y,N,2013-08-28,2013-10-07
01-716-1311,CDISCPILOT01,ADTTE,716,1311,15.0,DAYS,1.0,1.0,ERYTHEMA,VERBATIM_0300,Xanomeline Low Dose,Xan_Lo,1.0,65-80,CAUCASIAN,1.0,M,Y,Y,Y,N,2014-05-14,2014-09-21
01-716-1364,CDISCPILOT01,ADTTE,716,1364,46.0,DAYS,1.0,1.0,PRURITUS,VERBATIM_0658,Xanomeline High Dose,Xan_Hi,2.0,>80,CAUCASIAN,1.0,F,Y,Y,Y,Y,2013-07-04,2014-01-09
01-716-1373,CDISCPILOT01,ADTTE,716,1373,2.0,DAYS,1.0,2.0,PRURITUS,VERBATIM_0216,Xanomeline High Dose,Xan_Hi,2.0,65-80,CAUCASIAN,1.0,M,Y,Y,Y,N,2012-12-14,2013-02-27
01-716-1418,CDISCPILOT01,ADTTE,716,1418,1.0,DAYS,1.0,1.0,URTICARIA,VERBATIM_1341,Xanomeline High Dose,Xan_Hi,2.0,65-80,CAUCASIAN,1.0,F,Y,Y,Y,Y,2013-05-05,2013-11-20
01-716-1441,CDISCPILOT01,ADTTE,716,1441,110.0,DAYS,1.0,1.0,ERYTHEMA,VERBATIM_0300,Placebo,Pbo,0.0,>80,CAUCASIAN,1.0,M,Y,Y,Y,Y,2014-01-22,2014-07-22
01-716-1447,CDISCPILOT01,ADTTE,716,1447,30.0,DAYS,1.0,2.0,ERYTHEMA,VERBATIM_0300,Xanomeline High Dose,Xan_Hi,2.0,65-80,CAUCASIAN,1.0,F,Y,Y,Y,Y,2013-12-16,2014-06-17
01-717-1004,CDISCPILOT01,ADTTE,717,1004,2.0,DAYS,1.0,6.0,SKIN IRRITATION,VERBATIM_1630,Xanomeline Low Dose,Xan_Lo,1.0,65-80,CAUCASIAN,1.0,F,Y,Y,Y,Y,2014-01-14,2014-07-16
01-717-1109,CDISCPILOT01,ADTTE,717,1109,20.0,DAYS,1.0,2.0,SKIN IRRITATION,VERBATIM_1630,Xanomeline High Dose,Xan_Hi,2.0,>80,CAUCASIAN,1.0,M,Y,Y,Y,Y,2014-01-27,2014-07-28
01-717-1174,CDISCPILOT01,ADTTE,717,1174,5.0,DAYS,1.0,1.0,SKIN IRRITATION,VERBATIM_1630,Xanomeline High Dose,Xan_Hi,2.0,65-80,CAUCASIAN,1.0,M,Y,Y,Y,Y,2013-01-22,2013-07-24
01-717-1201,CDISCPILOT01,ADTTE,717,1201,1.0,DAYS,1.0,1.0,SKIN IRRITATION,VERBATIM_1630,Placebo,Pbo,0.0,>80,CAUCASIAN,1.0,F,Y,Y,Y,N,2013-12-19,2014-02-21
01-717-1344,CDISCPILOT01,ADTTE,717,1344,63.0,DAYS,0.0,,,,Placebo,Pbo,0.0,<65,CAUCASIAN,1.0,F,Y,Y,Y,N,2014-01-11,2014-03-14
01-717-1357,CDISCPILOT01,ADTTE,717,1357,23.0,DAYS,1.0,2.0,SKIN IRRITATION,VERBATIM_1630,Xanomeline High Dose,Xan_Hi,2.0,65-80,CAUCASIAN,1.0,M,Y,Y,Y,Y,2013-05-01,2013-10-14
01-717-1446,CDISCPILOT01,ADTTE,717,1446,19.0,DAYS,1.0,3.0,SKIN IRRITATION,VERBATIM_1630,Xanomeline Low Dose,Xan_Lo,1.0,65-80,CAUCASIAN,1.0,F,Y,Y,Y,Y,2013-09-01,2014-03-03
01-718-1066,CDISCPILOT01,ADTTE,718,1066,24.0,DAYS,0.0,,,,Xanomeline Low Dose,Xan_Lo,1.0,65-80,CAUCASIAN,1.0,F,Y,Y,Y,N,2013-07-07,2013-07-16
01-718-1079,CDISCPILOT01,ADTTE,718,1079,17.0,DAYS,1.0,2.0,APPLICATION SITE IRRITATION,VERBATIM_1567,Xanomeline Low Dose,Xan_Lo,1.0,65-80,CAUCASIAN,1.0,F,Y,Y,Y,N,2012-09-19,2012-10-31
01-718-1101,CDISCPILOT01,ADTTE,718,1101,167.0,DAYS,0.0,,,,Xanomeline High Dose,Xan_Hi,2.0,>80,"AFRICAN DESCENT (NEGRO, BLACK)",2.0,M,Y,Y,Y,Y,2013-02-17,2013-07-31
01-718-1139,CDISCPILOT01,ADTTE,718,1139,183.0,DAYS,0.0,,,,Placebo,Pbo,0.0,65-80,CAUCASIAN,1.0,M,Y,Y,Y,Y,2013-05-19,2013-11-17
01-718-1150,CDISCPILOT01,ADTTE,718,1150,56.0,DAYS,1.0,3.0,APPLICATION SITE IRRITATION,VERBATIM_0479,Placebo,Pbo,0.0,65-80,CAUCASIAN,1.0,F,Y,Y,Y,Y,2013-01-19,2013-07-29
01-718-1170,CDISCPILOT01,ADTTE,718,1170,49.0,DAYS,0.0,,,,Xanomeline Low Dose,Xan_Lo,1.0,65-80,CAUCASIAN,1.0,F,Y,Y,Y,N,2013-09-16,2013-10-12
01-718-1172,CDISCPILOT01,ADTTE,718,1172,70.0,DAYS,0.0,,,,Placebo,Pbo,0.0,65-80,CAUCASIAN,1.0,M,Y,Y,Y,N,2013-09-21,2013-11-29
01-718-1250,CDISCPILOT01,ADTTE,718,1250,100.0,DAYS,1.0,9.0,APPLICATION SITE PRURITUS,VERBATIM_0414,Xanomeline Low Dose,Xan_Lo,1.0,>80,"HISPANIC (MEXICAN - AMERICAN, MEXICO, CENTRAL AND SOUTH AMERICA)",5.0,F,Y,Y,Y,N,2013-09-21,2014-01-31
01-718-1254,CDISCPILOT01,ADTTE,718,1254,35.0,DAYS,1.0,4.0,APPLICATION SITE DISCOLOURATION,VERBATIM_1032,Xanomeline Low Dose,Xan_Lo,1.0,65-80,"HISPANIC (MEXICAN - AMERICAN, MEXICO, CENTRAL AND SOUTH AMERICA)",5.0,M,Y,Y,Y,Y,2013-07-10,2014-01-09
01-718-1328,CDISCPILOT01,ADTTE,718,1328,51.0,DAYS,1.0,1.0,APPLICATION SITE DERMATITIS,VERBATIM_1195,Xanomeline High Dose,Xan_Hi,2.0,>80,CAUCASIAN,1.0,M,Y,Y,Y,N,2013-02-01,2013-04-18
01-718-1355,CDISCPILOT01,ADTTE,718,1355,9.0,DAYS,1.0,1.0,SKIN ULCER,VERBATIM_0931,Placebo,Pbo,0.0,65-80,CAUCASIAN,1.0,M,Y,Y,Y,Y,2013-02-28,2013-08-29
01-718-1371,CDISCPILOT01,ADTTE,718,1371,29.0,DAYS,1.0,3.0,APPLICATION SITE IRRITATION,VERBATIM_1336,Xanomeline High Dose,Xan_Hi,2.0,65-80,CAUCASIAN,1.0,F,Y,Y,Y,N,2013-04-26,2013-08-01
01-718-1427,CDISCPILOT01,ADTTE,718,1427,42.0,DAYS,1.0,9.0,APPLICATION SITE PRURITUS,VERBATIM_1408,Xanomeline High Dose,Xan_Hi,2.0,65-80,"AFRICAN DESCENT (NEGRO, BLACK)",2.0,F,Y,Y,Y,N,2012-12-17,2013-02-11
