<?xml version="1.0" encoding="UTF-8"?>
<!-- Produced from SAS data using SAS Clinical Standards Toolkit -->
<ODM
xmlns="http://www.cdisc.org/ns/odm/v1.3"
xmlns:data="http://www.cdisc.org/ns/Dataset-XML/v1.0"
ODMVersion="1.3.2"
FileType="Snapshot"
FileOID="SAS_CST_Define.ADQS"
PriorFileOID="SAS_CST_Define"
CreationDateTime="2014-10-29T11:15:12"
data:DatasetXMLVersion="1.0.0">
<ClinicalData StudyOID="SAS_CST_Define" MetaDataVersionOID="MDV.1">
<ItemGroupData ItemGroupOID="IG.ADQS" data:ItemGroupDataSeq="1">
<ItemData ItemOID="IT.ADQS.STUDYID" Value="SASCSTDEMODATA"/>
<ItemData ItemOID="IT.ADQS.USUBJID" Value="S001P001"/>
<ItemData ItemOID="IT.ADQS.TRTP" Value="TRT B"/>
<ItemData ItemOID="IT.ADQS.TRTPN" Value="2"/>
<ItemData ItemOID="IT.ADQS.ADT" Value="17570"/>
<ItemData ItemOID="IT.ADQS.ADY" Value="1"/>
<ItemData ItemOID="IT.ADQS.AVISIT" Value="RANDOMIZATION"/>
<ItemData ItemOID="IT.ADQS.AVISITN" Value="1"/>
<ItemData ItemOID="IT.ADQS.PARAM" Value="Word Recall Task"/>
<ItemData ItemOID="IT.ADQS.PARAMCD" Value="ACITM01"/>
<ItemData ItemOID="IT.ADQS.PARAMN" Value="1"/>
<ItemData ItemOID="IT.ADQS.AVAL" Value="3"/>
<ItemData ItemOID="IT.ADQS.QSSEQ" Value="56"/>
<ItemData ItemOID="IT.ADQS.QSCAT" Value="ALZHEIMER'S DISEASE ASSESSMENT SCALE"/>
<ItemData ItemOID="IT.ADQS.QSORRES" Value="3"/>
<ItemData ItemOID="IT.ADQS.QSSTRESC" Value="3"/>
<ItemData ItemOID="IT.ADQS.AGE" Value="48"/>
<ItemData ItemOID="IT.ADQS.SEX" Value="M"/>
<ItemData ItemOID="IT.ADQS.TRTEDT" Value="17597"/>
<ItemData ItemOID="IT.ADQS.TRTSDT" Value="17569"/>
<ItemData ItemOID="IT.ADQS.SAFFL" Value="Y"/>
</ItemGroupData>
<ItemGroupData ItemGroupOID="IG.ADQS" data:ItemGroupDataSeq="2">
<ItemData ItemOID="IT.ADQS.STUDYID" Value="SASCSTDEMODATA"/>
<ItemData ItemOID="IT.ADQS.USUBJID" Value="S001P001"/>
<ItemData ItemOID="IT.ADQS.TRTP" Value="TRT B"/>
<ItemData ItemOID="IT.ADQS.TRTPN" Value="2"/>
<ItemData ItemOID="IT.ADQS.ADT" Value="17587"/>
<ItemData ItemOID="IT.ADQS.ADY" Value="18"/>
<ItemData ItemOID="IT.ADQS.AVISIT" Value="2 WEEKS"/>
<ItemData ItemOID="IT.ADQS.AVISITN" Value="2"/>
<ItemData ItemOID="IT.ADQS.PARAM" Value="Word Recall Task"/>
<ItemData ItemOID="IT.ADQS.PARAMCD" Value="ACITM01"/>
<ItemData ItemOID="IT.ADQS.PARAMN" Value="1"/>
<ItemData ItemOID="IT.ADQS.AVAL" Value="2"/>
<ItemData ItemOID="IT.ADQS.QSSEQ" Value="57"/>
<ItemData ItemOID="IT.ADQS.QSCAT" Value="ALZHEIMER'S DISEASE ASSESSMENT SCALE"/>
<ItemData ItemOID="IT.ADQS.QSORRES" Value="2"/>
<ItemData ItemOID="IT.ADQS.QSSTRESC" Value="2"/>
<ItemData ItemOID="IT.ADQS.AGE" Value="48"/>
<ItemData ItemOID="IT.ADQS.SEX" Value="M"/>
<ItemData ItemOID="IT.ADQS.TRTEDT" Value="17597"/>
<ItemData ItemOID="IT.ADQS.TRTSDT" Value="17569"/>
<ItemData ItemOID="IT.ADQS.SAFFL" Value="Y"/>
</ItemGroupData>
<ItemGroupData ItemGroupOID="IG.ADQS" data:ItemGroupDataSeq="3">
<ItemData ItemOID="IT.ADQS.STUDYID" Value="SASCSTDEMODATA"/>
<ItemData ItemOID="IT.ADQS.USUBJID" Value="S001P001"/>
<ItemData ItemOID="IT.ADQS.TRTP" Value="TRT B"/>
<ItemData ItemOID="IT.ADQS.TRTPN" Value="2"/>
<ItemData ItemOID="IT.ADQS.ADT" Value="17605"/>
<ItemData ItemOID="IT.ADQS.ADY" Value="36"/>
<ItemData ItemOID="IT.ADQS.AVISIT" Value="4 WEEKS"/>
<ItemData ItemOID="IT.ADQS.AVISITN" Value="3"/>
<ItemData ItemOID="IT.ADQS.PARAM" Value="Word Recall Task"/>
<ItemData ItemOID="IT.ADQS.PARAMCD" Value="ACITM01"/>
<ItemData ItemOID="IT.ADQS.PARAMN" Value="1"/>
<ItemData ItemOID="IT.ADQS.AVAL" Value="4"/>
<ItemData ItemOID="IT.ADQS.QSSEQ" Value="58"/>
<ItemData ItemOID="IT.ADQS.QSCAT" Value="ALZHEIMER'S DISEASE ASSESSMENT SCALE"/>
<ItemData ItemOID="IT.ADQS.QSORRES" Value="4"/>
<ItemData ItemOID="IT.ADQS.QSSTRESC" Value="4"/>
<ItemData ItemOID="IT.ADQS.AGE" Value="48"/>
<ItemData ItemOID="IT.ADQS.SEX" Value="M"/>
<ItemData ItemOID="IT.ADQS.TRTEDT" Value="17597"/>
<ItemData ItemOID="IT.ADQS.TRTSDT" Value="17569"/>
<ItemData ItemOID="IT.ADQS.SAFFL" Value="Y"/>
</ItemGroupData>
<ItemGroupData ItemGroupOID="IG.ADQS" data:ItemGroupDataSeq="4">
<ItemData ItemOID="IT.ADQS.STUDYID" Value="SASCSTDEMODATA"/>
<ItemData ItemOID="IT.ADQS.USUBJID" Value="S001P001"/>
<ItemData ItemOID="IT.ADQS.TRTP" Value="TRT B"/>
<ItemData ItemOID="IT.ADQS.TRTPN" Value="2"/>
<ItemData ItemOID="IT.ADQS.ADT" Value="17612"/>
<ItemData ItemOID="IT.ADQS.ADY" Value="43"/>
<ItemData ItemOID="IT.ADQS.AVISIT" Value="6 WEEKS"/>
<ItemData ItemOID="IT.ADQS.AVISITN" Value="4"/>
<ItemData ItemOID="IT.ADQS.PARAM" Value="Word Recall Task"/>
<ItemData ItemOID="IT.ADQS.PARAMCD" Value="ACITM01"/>
<ItemData ItemOID="IT.ADQS.PARAMN" Value="1"/>
<ItemData ItemOID="IT.ADQS.AVAL" Value="3"/>
<ItemData ItemOID="IT.ADQS.QSSEQ" Value="59"/>
<ItemData ItemOID="IT.ADQS.QSCAT" Value="ALZHEIMER'S DISEASE ASSESSMENT SCALE"/>
<ItemData ItemOID="IT.ADQS.QSORRES" Value="3"/>
<ItemData ItemOID="IT.ADQS.QSSTRESC" Value="3"/>
<ItemData ItemOID="IT.ADQS.AGE" Value="48"/>
<ItemData ItemOID="IT.ADQS.SEX" Value="M"/>
<ItemData ItemOID="IT.ADQS.TRTEDT" Value="17597"/>
<ItemData ItemOID="IT.ADQS.TRTSDT" Value="17569"/>
<ItemData ItemOID="IT.ADQS.SAFFL" Value="Y"/>
</ItemGroupData>
<ItemGroupData ItemGroupOID="IG.ADQS" data:ItemGroupDataSeq="5">
<ItemData ItemOID="IT.ADQS.STUDYID" Value="SASCSTDEMODATA"/>
<ItemData ItemOID="IT.ADQS.USUBJID" Value="S001P001"/>
<ItemData ItemOID="IT.ADQS.TRTP" Value="TRT B"/>
<ItemData ItemOID="IT.ADQS.TRTPN" Value="2"/>
<ItemData ItemOID="IT.ADQS.ADT" Value="17570"/>
<ItemData ItemOID="IT.ADQS.ADY" Value="1"/>
<ItemData ItemOID="IT.ADQS.AVISIT" Value="RANDOMIZATION"/>
<ItemData ItemOID="IT.ADQS.AVISITN" Value="1"/>
<ItemData ItemOID="IT.ADQS.PARAM" Value="Naming Objects and Fingers"/>
<ItemData ItemOID="IT.ADQS.PARAMCD" Value="ACITM02"/>
<ItemData ItemOID="IT.ADQS.PARAMN" Value="2"/>
<ItemData ItemOID="IT.ADQS.AVAL" Value="1"/>
<ItemData ItemOID="IT.ADQS.QSSEQ" Value="36"/>
<ItemData ItemOID="IT.ADQS.QSCAT" Value="ALZHEIMER'S DISEASE ASSESSMENT SCALE"/>
<ItemData ItemOID="IT.ADQS.QSORRES" Value="1"/>
<ItemData ItemOID="IT.ADQS.QSSTRESC" Value="1"/>
<ItemData ItemOID="IT.ADQS.AGE" Value="48"/>
<ItemData ItemOID="IT.ADQS.SEX" Value="M"/>
<ItemData ItemOID="IT.ADQS.TRTEDT" Value="17597"/>
<ItemData ItemOID="IT.ADQS.TRTSDT" Value="17569"/>
<ItemData ItemOID="IT.ADQS.SAFFL" Value="Y"/>
</ItemGroupData>
<ItemGroupData ItemGroupOID="IG.ADQS" data:ItemGroupDataSeq="6">
<ItemData ItemOID="IT.ADQS.STUDYID" Value="SASCSTDEMODATA"/>
<ItemData ItemOID="IT.ADQS.USUBJID" Value="S001P001"/>
<ItemData ItemOID="IT.ADQS.TRTP" Value="TRT B"/>
<ItemData ItemOID="IT.ADQS.TRTPN" Value="2"/>
<ItemData ItemOID="IT.ADQS.ADT" Value="17587"/>
<ItemData ItemOID="IT.ADQS.ADY" Value="18"/>
<ItemData ItemOID="IT.ADQS.AVISIT" Value="2 WEEKS"/>
<ItemData ItemOID="IT.ADQS.AVISITN" Value="2"/>
<ItemData ItemOID="IT.ADQS.PARAM" Value="Naming Objects and Fingers"/>
<ItemData ItemOID="IT.ADQS.PARAMCD" Value="ACITM02"/>
<ItemData ItemOID="IT.ADQS.PARAMN" Value="2"/>
<ItemData ItemOID="IT.ADQS.AVAL" Value="0"/>
<ItemData ItemOID="IT.ADQS.QSSEQ" Value="37"/>
<ItemData ItemOID="IT.ADQS.QSCAT" Value="ALZHEIMER'S DISEASE ASSESSMENT SCALE"/>
<ItemData ItemOID="IT.ADQS.QSORRES" Value="0"/>
<ItemData ItemOID="IT.ADQS.QSSTRESC" Value="0"/>
<ItemData ItemOID="IT.ADQS.AGE" Value="48"/>
<ItemData ItemOID="IT.ADQS.SEX" Value="M"/>
<ItemData ItemOID="IT.ADQS.TRTEDT" Value="17597"/>
<ItemData ItemOID="IT.ADQS.TRTSDT" Value="17569"/>
<ItemData ItemOID="IT.ADQS.SAFFL" Value="Y"/>
</ItemGroupData>
<ItemGroupData ItemGroupOID="IG.ADQS" data:ItemGroupDataSeq="7">
<ItemData ItemOID="IT.ADQS.STUDYID" Value="SASCSTDEMODATA"/>
<ItemData ItemOID="IT.ADQS.USUBJID" Value="S001P001"/>
<ItemData ItemOID="IT.ADQS.TRTP" Value="TRT B"/>
<ItemData ItemOID="IT.ADQS.TRTPN" Value="2"/>
<ItemData ItemOID="IT.ADQS.ADT" Value="17605"/>
<ItemData ItemOID="IT.ADQS.ADY" Value="36"/>
<ItemData ItemOID="IT.ADQS.AVISIT" Value="4 WEEKS"/>
<ItemData ItemOID="IT.ADQS.AVISITN" Value="3"/>
<ItemData ItemOID="IT.ADQS.PARAM" Value="Naming Objects and Fingers"/>
<ItemData ItemOID="IT.ADQS.PARAMCD" Value="ACITM02"/>
<ItemData ItemOID="IT.ADQS.PARAMN" Value="2"/>
<ItemData ItemOID="IT.ADQS.AVAL" Value="0"/>
<ItemData ItemOID="IT.ADQS.QSSEQ" Value="38"/>
<ItemData ItemOID="IT.ADQS.QSCAT" Value="ALZHEIMER'S DISEASE ASSESSMENT SCALE"/>
<ItemData ItemOID="IT.ADQS.QSORRES" Value="0"/>
<ItemData ItemOID="IT.ADQS.QSSTRESC" Value="0"/>
<ItemData ItemOID="IT.ADQS.AGE" Value="48"/>
<ItemData ItemOID="IT.ADQS.SEX" Value="M"/>
<ItemData ItemOID="IT.ADQS.TRTEDT" Value="17597"/>
<ItemData ItemOID="IT.ADQS.TRTSDT" Value="17569"/>
<ItemData ItemOID="IT.ADQS.SAFFL" Value="Y"/>
</ItemGroupData>
<ItemGroupData ItemGroupOID="IG.ADQS" data:ItemGroupDataSeq="8">
<ItemData ItemOID="IT.ADQS.STUDYID" Value="SASCSTDEMODATA"/>
<ItemData ItemOID="IT.ADQS.USUBJID" Value="S001P001"/>
<ItemData ItemOID="IT.ADQS.TRTP" Value="TRT B"/>
<ItemData ItemOID="IT.ADQS.TRTPN" Value="2"/>
<ItemData ItemOID="IT.ADQS.ADT" Value="17612"/>
<ItemData ItemOID="IT.ADQS.ADY" Value="43"/>
<ItemData ItemOID="IT.ADQS.AVISIT" Value="6 WEEKS"/>
<ItemData ItemOID="IT.ADQS.AVISITN" Value="4"/>
<ItemData ItemOID="IT.ADQS.PARAM" Value="Naming Objects and Fingers"/>
<ItemData ItemOID="IT.ADQS.PARAMCD" Value="ACITM02"/>
<ItemData ItemOID="IT.ADQS.PARAMN" Value="2"/>
<ItemData ItemOID="IT.ADQS.AVAL" Value="0"/>
<ItemData ItemOID="IT.ADQS.QSSEQ" Value="39"/>
<ItemData ItemOID="IT.ADQS.QSCAT" Value="ALZHEIMER'S DISEASE ASSESSMENT SCALE"/>
<ItemData ItemOID="IT.ADQS.QSORRES" Value="0"/>
<ItemData ItemOID="IT.ADQS.QSSTRESC" Value="0"/>
<ItemData ItemOID="IT.ADQS.AGE" Value="48"/>
<ItemData ItemOID="IT.ADQS.SEX" Value="M"/>
<ItemData ItemOID="IT.ADQS.TRTEDT" Value="17597"/>
<ItemData ItemOID="IT.ADQS.TRTSDT" Value="17569"/>
<ItemData ItemOID="IT.ADQS.SAFFL" Value="Y"/>
</ItemGroupData>
<ItemGroupData ItemGroupOID="IG.ADQS" data:ItemGroupDataSeq="9">
<ItemData ItemOID="IT.ADQS.STUDYID" Value="SASCSTDEMODATA"/>
<ItemData ItemOID="IT.ADQS.USUBJID" Value="S001P001"/>
<ItemData ItemOID="IT.ADQS.TRTP" Value="TRT B"/>
<ItemData ItemOID="IT.ADQS.TRTPN" Value="2"/>
<ItemData ItemOID="IT.ADQS.ADT" Value="17570"/>
<ItemData ItemOID="IT.ADQS.ADY" Value="1"/>
<ItemData ItemOID="IT.ADQS.AVISIT" Value="RANDOMIZATION"/>
<ItemData ItemOID="IT.ADQS.AVISITN" Value="1"/>
<ItemData ItemOID="IT.ADQS.PARAM" Value="Delayed Word Recall"/>
<ItemData ItemOID="IT.ADQS.PARAMCD" Value="ACITM03"/>
<ItemData ItemOID="IT.ADQS.PARAMN" Value="3"/>
<ItemData ItemOID="IT.ADQS.AVAL" Value="3"/>
<ItemData ItemOID="IT.ADQS.QSSEQ" Value="21"/>
<ItemData ItemOID="IT.ADQS.QSCAT" Value="ALZHEIMER'S DISEASE ASSESSMENT SCALE"/>
<ItemData ItemOID="IT.ADQS.QSORRES" Value="3"/>
<ItemData ItemOID="IT.ADQS.QSSTRESC" Value="3"/>
<ItemData ItemOID="IT.ADQS.AGE" Value="48"/>
<ItemData ItemOID="IT.ADQS.SEX" Value="M"/>
<ItemData ItemOID="IT.ADQS.TRTEDT" Value="17597"/>
<ItemData ItemOID="IT.ADQS.TRTSDT" Value="17569"/>
<ItemData ItemOID="IT.ADQS.SAFFL" Value="Y"/>
</ItemGroupData>
<ItemGroupData ItemGroupOID="IG.ADQS" data:ItemGroupDataSeq="10">
<ItemData ItemOID="IT.ADQS.STUDYID" Value="SASCSTDEMODATA"/>
<ItemData ItemOID="IT.ADQS.USUBJID" Value="S001P001"/>
<ItemData ItemOID="IT.ADQS.TRTP" Value="TRT B"/>
<ItemData ItemOID="IT.ADQS.TRTPN" Value="2"/>
<ItemData ItemOID="IT.ADQS.ADT" Value="17587"/>
<ItemData ItemOID="IT.ADQS.ADY" Value="18"/>
<ItemData ItemOID="IT.ADQS.AVISIT" Value="2 WEEKS"/>
<ItemData ItemOID="IT.ADQS.AVISITN" Value="2"/>
<ItemData ItemOID="IT.ADQS.PARAM" Value="Delayed Word Recall"/>
<ItemData ItemOID="IT.ADQS.PARAMCD" Value="ACITM03"/>
<ItemData ItemOID="IT.ADQS.PARAMN" Value="3"/>
<ItemData ItemOID="IT.ADQS.AVAL" Value="3"/>
<ItemData ItemOID="IT.ADQS.QSSEQ" Value="22"/>
<ItemData ItemOID="IT.ADQS.QSCAT" Value="ALZHEIMER'S DISEASE ASSESSMENT SCALE"/>
<ItemData ItemOID="IT.ADQS.QSORRES" Value="3"/>
<ItemData ItemOID="IT.ADQS.QSSTRESC" Value="3"/>
<ItemData ItemOID="IT.ADQS.AGE" Value="48"/>
<ItemData ItemOID="IT.ADQS.SEX" Value="M"/>
<ItemData ItemOID="IT.ADQS.TRTEDT" Value="17597"/>
<ItemData ItemOID="IT.ADQS.TRTSDT" Value="17569"/>
<ItemData ItemOID="IT.ADQS.SAFFL" Value="Y"/>
</ItemGroupData>
<ItemGroupData ItemGroupOID="IG.ADQS" data:ItemGroupDataSeq="11">
<ItemData ItemOID="IT.ADQS.STUDYID" Value="SASCSTDEMODATA"/>
<ItemData ItemOID="IT.ADQS.USUBJID" Value="S001P001"/>
<ItemData ItemOID="IT.ADQS.TRTP" Value="TRT B"/>
<ItemData ItemOID="IT.ADQS.TRTPN" Value="2"/>
<ItemData ItemOID="IT.ADQS.ADT" Value="17605"/>
<ItemData ItemOID="IT.ADQS.ADY" Value="36"/>
<ItemData ItemOID="IT.ADQS.AVISIT" Value="4 WEEKS"/>
<ItemData ItemOID="IT.ADQS.AVISITN" Value="3"/>
<ItemData ItemOID="IT.ADQS.PARAM" Value="Delayed Word Recall"/>
<ItemData ItemOID="IT.ADQS.PARAMCD" Value="ACITM03"/>
<ItemData ItemOID="IT.ADQS.PARAMN" Value="3"/>
<ItemData ItemOID="IT.ADQS.AVAL" Value="1"/>
<ItemData ItemOID="IT.ADQS.QSSEQ" Value="23"/>
<ItemData ItemOID="IT.ADQS.QSCAT" Value="ALZHEIMER'S DISEASE ASSESSMENT SCALE"/>
<ItemData ItemOID="IT.ADQS.QSORRES" Value="1"/>
<ItemData ItemOID="IT.ADQS.QSSTRESC" Value="1"/>
<ItemData ItemOID="IT.ADQS.AGE" Value="48"/>
<ItemData ItemOID="IT.ADQS.SEX" Value="M"/>
<ItemData ItemOID="IT.ADQS.TRTEDT" Value="17597"/>
<ItemData ItemOID="IT.ADQS.TRTSDT" Value="17569"/>
<ItemData ItemOID="IT.ADQS.SAFFL" Value="Y"/>
</ItemGroupData>
<ItemGroupData ItemGroupOID="IG.ADQS" data:ItemGroupDataSeq="12">
<ItemData ItemOID="IT.ADQS.STUDYID" Value="SASCSTDEMODATA"/>
<ItemData ItemOID="IT.ADQS.USUBJID" Value="S001P001"/>
<ItemData ItemOID="IT.ADQS.TRTP" Value="TRT B"/>
<ItemData ItemOID="IT.ADQS.TRTPN" Value="2"/>
<ItemData ItemOID="IT.ADQS.ADT" Value="17612"/>
<ItemData ItemOID="IT.ADQS.ADY" Value="43"/>
<ItemData ItemOID="IT.ADQS.AVISIT" Value="6 WEEKS"/>
<ItemData ItemOID="IT.ADQS.AVISITN" Value="4"/>
<ItemData ItemOID="IT.ADQS.PARAM" Value="Delayed Word Recall"/>
<ItemData ItemOID="IT.ADQS.PARAMCD" Value="ACITM03"/>
<ItemData ItemOID="IT.ADQS.PARAMN" Value="3"/>
<ItemData ItemOID="IT.ADQS.AVAL" Value="2"/>
<ItemData ItemOID="IT.ADQS.QSSEQ" Value="24"/>
<ItemData ItemOID="IT.ADQS.QSCAT" Value="ALZHEIMER'S DISEASE ASSESSMENT SCALE"/>
<ItemData ItemOID="IT.ADQS.QSORRES" Value="2"/>
<ItemData ItemOID="IT.ADQS.QSSTRESC" Value="2"/>
<ItemData ItemOID="IT.ADQS.AGE" Value="48"/>
<ItemData ItemOID="IT.ADQS.SEX" Value="M"/>
<ItemData ItemOID="IT.ADQS.TRTEDT" Value="17597"/>
<ItemData ItemOID="IT.ADQS.TRTSDT" Value="17569"/>
<ItemData ItemOID="IT.ADQS.SAFFL" Value="Y"/>
</ItemGroupData>
<ItemGroupData ItemGroupOID="IG.ADQS" data:ItemGroupDataSeq="13">
<ItemData ItemOID="IT.ADQS.STUDYID" Value="SASCSTDEMODATA"/>
<ItemData ItemOID="IT.ADQS.USUBJID" Value="S001P001"/>
<ItemData ItemOID="IT.ADQS.TRTP" Value="TRT B"/>
<ItemData ItemOID="IT.ADQS.TRTPN" Value="2"/>
<ItemData ItemOID="IT.ADQS.ADT" Value="17570"/>
<ItemData ItemOID="IT.ADQS.ADY" Value="1"/>
<ItemData ItemOID="IT.ADQS.AVISIT" Value="RANDOMIZATION"/>
<ItemData ItemOID="IT.ADQS.AVISITN" Value="1"/>
<ItemData ItemOID="IT.ADQS.PARAM" Value="Commands"/>
<ItemData ItemOID="IT.ADQS.PARAMCD" Value="ACITM04"/>
<ItemData ItemOID="IT.ADQS.PARAMN" Value="4"/>
<ItemData ItemOID="IT.ADQS.AVAL" Value="0"/>
<ItemData ItemOID="IT.ADQS.QSSEQ" Value="9"/>
<ItemData ItemOID="IT.ADQS.QSCAT" Value="ALZHEIMER'S DISEASE ASSESSMENT SCALE"/>
<ItemData ItemOID="IT.ADQS.QSORRES" Value="0"/>
<ItemData ItemOID="IT.ADQS.QSSTRESC" Value="0"/>
<ItemData ItemOID="IT.ADQS.AGE" Value="48"/>
<ItemData ItemOID="IT.ADQS.SEX" Value="M"/>
<ItemData ItemOID="IT.ADQS.TRTEDT" Value="17597"/>
<ItemData ItemOID="IT.ADQS.TRTSDT" Value="17569"/>
<ItemData ItemOID="IT.ADQS.SAFFL" Value="Y"/>
</ItemGroupData>
<ItemGroupData ItemGroupOID="IG.ADQS" data:ItemGroupDataSeq="14">
<ItemData ItemOID="IT.ADQS.STUDYID" Value="SASCSTDEMODATA"/>
<ItemData ItemOID="IT.ADQS.USUBJID" Value="S001P001"/>
<ItemData ItemOID="IT.ADQS.TRTP" Value="TRT B"/>
<ItemData ItemOID="IT.ADQS.TRTPN" Value="2"/>
<ItemData ItemOID="IT.ADQS.ADT" Value="17587"/>
<ItemData ItemOID="IT.ADQS.ADY" Value="18"/>
<ItemData ItemOID="IT.ADQS.AVISIT" Value="2 WEEKS"/>
<ItemData ItemOID="IT.ADQS.AVISITN" Value="2"/>
<ItemData ItemOID="IT.ADQS.PARAM" Value="Commands"/>
<ItemData ItemOID="IT.ADQS.PARAMCD" Value="ACITM04"/>
<ItemData ItemOID="IT.ADQS.PARAMN" Value="4"/>
<ItemData ItemOID="IT.ADQS.AVAL" Value="0"/>
<ItemData ItemOID="IT.ADQS.QSSEQ" Value="10"/>
<ItemData ItemOID="IT.ADQS.QSCAT" Value="ALZHEIMER'S DISEASE ASSESSMENT SCALE"/>
<ItemData ItemOID="IT.ADQS.QSORRES" Value="0"/>
<ItemData ItemOID="IT.ADQS.QSSTRESC" Value="0"/>
<ItemData ItemOID="IT.ADQS.AGE" Value="48"/>
<ItemData ItemOID="IT.ADQS.SEX" Value="M"/>
<ItemData ItemOID="IT.ADQS.TRTEDT" Value="17597"/>
<ItemData ItemOID="IT.ADQS.TRTSDT" Value="17569"/>
<ItemData ItemOID="IT.ADQS.SAFFL" Value="Y"/>
</ItemGroupData>
<ItemGroupData ItemGroupOID="IG.ADQS" data:ItemGroupDataSeq="15">
<ItemData ItemOID="IT.ADQS.STUDYID" Value="SASCSTDEMODATA"/>
<ItemData ItemOID="IT.ADQS.USUBJID" Value="S001P001"/>
<ItemData ItemOID="IT.ADQS.TRTP" Value="TRT B"/>
<ItemData ItemOID="IT.ADQS.TRTPN" Value="2"/>
<ItemData ItemOID="IT.ADQS.ADT" Value="17605"/>
<ItemData ItemOID="IT.ADQS.ADY" Value="36"/>
<ItemData ItemOID="IT.ADQS.AVISIT" Value="4 WEEKS"/>
<ItemData ItemOID="IT.ADQS.AVISITN" Value="3"/>
<ItemData ItemOID="IT.ADQS.PARAM" Value="Commands"/>
<ItemData ItemOID="IT.ADQS.PARAMCD" Value="ACITM04"/>
<ItemData ItemOID="IT.ADQS.PARAMN" Value="4"/>
<ItemData ItemOID="IT.ADQS.AVAL" Value="0"/>
<ItemData ItemOID="IT.ADQS.QSSEQ" Value="11"/>
<ItemData ItemOID="IT.ADQS.QSCAT" Value="ALZHEIMER'S DISEASE ASSESSMENT SCALE"/>
<ItemData ItemOID="IT.ADQS.QSORRES" Value="0"/>
<ItemData ItemOID="IT.ADQS.QSSTRESC" Value="0"/>
<ItemData ItemOID="IT.ADQS.AGE" Value="48"/>
<ItemData ItemOID="IT.ADQS.SEX" Value="M"/>
<ItemData ItemOID="IT.ADQS.TRTEDT" Value="17597"/>
<ItemData ItemOID="IT.ADQS.TRTSDT" Value="17569"/>
<ItemData ItemOID="IT.ADQS.SAFFL" Value="Y"/>
</ItemGroupData>
<ItemGroupData ItemGroupOID="IG.ADQS" data:ItemGroupDataSeq="16">
<ItemData ItemOID="IT.ADQS.STUDYID" Value="SASCSTDEMODATA"/>
<ItemData ItemOID="IT.ADQS.USUBJID" Value="S001P001"/>
<ItemData ItemOID="IT.ADQS.TRTP" Value="TRT B"/>
<ItemData ItemOID="IT.ADQS.TRTPN" Value="2"/>
<ItemData ItemOID="IT.ADQS.ADT" Value="17612"/>
<ItemData ItemOID="IT.ADQS.ADY" Value="43"/>
<ItemData ItemOID="IT.ADQS.AVISIT" Value="6 WEEKS"/>
<ItemData ItemOID="IT.ADQS.AVISITN" Value="4"/>
<ItemData ItemOID="IT.ADQS.PARAM" Value="Commands"/>
<ItemData ItemOID="IT.ADQS.PARAMCD" Value="ACITM04"/>
<ItemData ItemOID="IT.ADQS.PARAMN" Value="4"/>
<ItemData ItemOID="IT.ADQS.AVAL" Value="0"/>
<ItemData ItemOID="IT.ADQS.QSSEQ" Value="12"/>
<ItemData ItemOID="IT.ADQS.QSCAT" Value="ALZHEIMER'S DISEASE ASSESSMENT SCALE"/>
<ItemData ItemOID="IT.ADQS.QSORRES" Value="0"/>
<ItemData ItemOID="IT.ADQS.QSSTRESC" Value="0"/>
<ItemData ItemOID="IT.ADQS.AGE" Value="48"/>
<ItemData ItemOID="IT.ADQS.SEX" Value="M"/>
<ItemData ItemOID="IT.ADQS.TRTEDT" Value="17597"/>
<ItemData ItemOID="IT.ADQS.TRTSDT" Value="17569"/>
<ItemData ItemOID="IT.ADQS.SAFFL" Value="Y"/>
</ItemGroupData>
<ItemGroupData ItemGroupOID="IG.ADQS" data:ItemGroupDataSeq="17">
<ItemData ItemOID="IT.ADQS.STUDYID" Value="SASCSTDEMODATA"/>
<ItemData ItemOID="IT.ADQS.USUBJID" Value="S001P001"/>
<ItemData ItemOID="IT.ADQS.TRTP" Value="TRT B"/>
<ItemData ItemOID="IT.ADQS.TRTPN" Value="2"/>
<ItemData ItemOID="IT.ADQS.ADT" Value="17570"/>
<ItemData ItemOID="IT.ADQS.ADY" Value="1"/>
<ItemData ItemOID="IT.ADQS.AVISIT" Value="RANDOMIZATION"/>
<ItemData ItemOID="IT.ADQS.AVISITN" Value="1"/>
<ItemData ItemOID="IT.ADQS.PARAM" Value="Constructional Praxis"/>
<ItemData ItemOID="IT.ADQS.PARAMCD" Value="ACITM05"/>
<ItemData ItemOID="IT.ADQS.PARAMN" Value="5"/>
<ItemData ItemOID="IT.ADQS.AVAL" Value="3"/>
<ItemData ItemOID="IT.ADQS.QSSEQ" Value="17"/>
<ItemData ItemOID="IT.ADQS.QSCAT" Value="ALZHEIMER'S DISEASE ASSESSMENT SCALE"/>
<ItemData ItemOID="IT.ADQS.QSORRES" Value="3"/>
<ItemData ItemOID="IT.ADQS.QSSTRESC" Value="3"/>
<ItemData ItemOID="IT.ADQS.AGE" Value="48"/>
<ItemData ItemOID="IT.ADQS.SEX" Value="M"/>
<ItemData ItemOID="IT.ADQS.TRTEDT" Value="17597"/>
<ItemData ItemOID="IT.ADQS.TRTSDT" Value="17569"/>
<ItemData ItemOID="IT.ADQS.SAFFL" Value="Y"/>
</ItemGroupData>
<ItemGroupData ItemGroupOID="IG.ADQS" data:ItemGroupDataSeq="18">
<ItemData ItemOID="IT.ADQS.STUDYID" Value="SASCSTDEMODATA"/>
<ItemData ItemOID="IT.ADQS.USUBJID" Value="S001P001"/>
<ItemData ItemOID="IT.ADQS.TRTP" Value="TRT B"/>
<ItemData ItemOID="IT.ADQS.TRTPN" Value="2"/>
<ItemData ItemOID="IT.ADQS.ADT" Value="17587"/>
<ItemData ItemOID="IT.ADQS.ADY" Value="18"/>
<ItemData ItemOID="IT.ADQS.AVISIT" Value="2 WEEKS"/>
<ItemData ItemOID="IT.ADQS.AVISITN" Value="2"/>
<ItemData ItemOID="IT.ADQS.PARAM" Value="Constructional Praxis"/>
<ItemData ItemOID="IT.ADQS.PARAMCD" Value="ACITM05"/>
<ItemData ItemOID="IT.ADQS.PARAMN" Value="5"/>
<ItemData ItemOID="IT.ADQS.AVAL" Value="2"/>
<ItemData ItemOID="IT.ADQS.QSSEQ" Value="18"/>
<ItemData ItemOID="IT.ADQS.QSCAT" Value="ALZHEIMER'S DISEASE ASSESSMENT SCALE"/>
<ItemData ItemOID="IT.ADQS.QSORRES" Value="2"/>
<ItemData ItemOID="IT.ADQS.QSSTRESC" Value="2"/>
<ItemData ItemOID="IT.ADQS.AGE" Value="48"/>
<ItemData ItemOID="IT.ADQS.SEX" Value="M"/>
<ItemData ItemOID="IT.ADQS.TRTEDT" Value="17597"/>
<ItemData ItemOID="IT.ADQS.TRTSDT" Value="17569"/>
<ItemData ItemOID="IT.ADQS.SAFFL" Value="Y"/>
</ItemGroupData>
<ItemGroupData ItemGroupOID="IG.ADQS" data:ItemGroupDataSeq="19">
<ItemData ItemOID="IT.ADQS.STUDYID" Value="SASCSTDEMODATA"/>
<ItemData ItemOID="IT.ADQS.USUBJID" Value="S001P001"/>
<ItemData ItemOID="IT.ADQS.TRTP" Value="TRT B"/>
<ItemData ItemOID="IT.ADQS.TRTPN" Value="2"/>
<ItemData ItemOID="IT.ADQS.ADT" Value="17605"/>
<ItemData ItemOID="IT.ADQS.ADY" Value="36"/>
<ItemData ItemOID="IT.ADQS.AVISIT" Value="4 WEEKS"/>
<ItemData ItemOID="IT.ADQS.AVISITN" Value="3"/>
<ItemData ItemOID="IT.ADQS.PARAM" Value="Constructional Praxis"/>
<ItemData ItemOID="IT.ADQS.PARAMCD" Value="ACITM05"/>
<ItemData ItemOID="IT.ADQS.PARAMN" Value="5"/>
<ItemData ItemOID="IT.ADQS.AVAL" Value="2"/>
<ItemData ItemOID="IT.ADQS.QSSEQ" Value="19"/>
<ItemData ItemOID="IT.ADQS.QSCAT" Value="ALZHEIMER'S DISEASE ASSESSMENT SCALE"/>
<ItemData ItemOID="IT.ADQS.QSORRES" Value="2"/>
<ItemData ItemOID="IT.ADQS.QSSTRESC" Value="2"/>
<ItemData ItemOID="IT.ADQS.AGE" Value="48"/>
<ItemData ItemOID="IT.ADQS.SEX" Value="M"/>
<ItemData ItemOID="IT.ADQS.TRTEDT" Value="17597"/>
<ItemData ItemOID="IT.ADQS.TRTSDT" Value="17569"/>
<ItemData ItemOID="IT.ADQS.SAFFL" Value="Y"/>
</ItemGroupData>
<ItemGroupData ItemGroupOID="IG.ADQS" data:ItemGroupDataSeq="20">
<ItemData ItemOID="IT.ADQS.STUDYID" Value="SASCSTDEMODATA"/>
<ItemData ItemOID="IT.ADQS.USUBJID" Value="S001P001"/>
<ItemData ItemOID="IT.ADQS.TRTP" Value="TRT B"/>
<ItemData ItemOID="IT.ADQS.TRTPN" Value="2"/>
<ItemData ItemOID="IT.ADQS.ADT" Value="17612"/>
<ItemData ItemOID="IT.ADQS.ADY" Value="43"/>
<ItemData ItemOID="IT.ADQS.AVISIT" Value="6 WEEKS"/>
<ItemData ItemOID="IT.ADQS.AVISITN" Value="4"/>
<ItemData ItemOID="IT.ADQS.PARAM" Value="Constructional Praxis"/>
<ItemData ItemOID="IT.ADQS.PARAMCD" Value="ACITM05"/>
<ItemData ItemOID="IT.ADQS.PARAMN" Value="5"/>
<ItemData ItemOID="IT.ADQS.AVAL" Value="3"/>
<ItemData ItemOID="IT.ADQS.QSSEQ" Value="20"/>
<ItemData ItemOID="IT.ADQS.QSCAT" Value="ALZHEIMER'S DISEASE ASSESSMENT SCALE"/>
<ItemData ItemOID="IT.ADQS.QSORRES" Value="3"/>
<ItemData ItemOID="IT.ADQS.QSSTRESC" Value="3"/>
<ItemData ItemOID="IT.ADQS.AGE" Value="48"/>
<ItemData ItemOID="IT.ADQS.SEX" Value="M"/>
<ItemData ItemOID="IT.ADQS.TRTEDT" Value="17597"/>
<ItemData ItemOID="IT.ADQS.TRTSDT" Value="17569"/>
<ItemData ItemOID="IT.ADQS.SAFFL" Value="Y"/>
</ItemGroupData>
<ItemGroupData ItemGroupOID="IG.ADQS" data:ItemGroupDataSeq="21">
<ItemData ItemOID="IT.ADQS.STUDYID" Value="SASCSTDEMODATA"/>
<ItemData ItemOID="IT.ADQS.USUBJID" Value="S001P001"/>
<ItemData ItemOID="IT.ADQS.TRTP" Value="TRT B"/>
<ItemData ItemOID="IT.ADQS.TRTPN" Value="2"/>
<ItemData ItemOID="IT.ADQS.ADT" Value="17570"/>
<ItemData ItemOID="IT.ADQS.ADY" Value="1"/>
<ItemData ItemOID="IT.ADQS.AVISIT" Value="RANDOMIZATION"/>
<ItemData ItemOID="IT.ADQS.AVISITN" Value="1"/>
<ItemData ItemOID="IT.ADQS.PARAM" Value="Ideational Praxis"/>
<ItemData ItemOID="IT.ADQS.PARAMCD" Value="ACITM06"/>
<ItemData ItemOID="IT.ADQS.PARAMN" Value="6"/>
<ItemData ItemOID="IT.ADQS.AVAL" Value="0"/>
<ItemData ItemOID="IT.ADQS.QSSEQ" Value="28"/>
<ItemData ItemOID="IT.ADQS.QSCAT" Value="ALZHEIMER'S DISEASE ASSESSMENT SCALE"/>
<ItemData ItemOID="IT.ADQS.QSORRES" Value="0"/>
<ItemData ItemOID="IT.ADQS.QSSTRESC" Value="0"/>
<ItemData ItemOID="IT.ADQS.AGE" Value="48"/>
<ItemData ItemOID="IT.ADQS.SEX" Value="M"/>
<ItemData ItemOID="IT.ADQS.TRTEDT" Value="17597"/>
<ItemData ItemOID="IT.ADQS.TRTSDT" Value="17569"/>
<ItemData ItemOID="IT.ADQS.SAFFL" Value="Y"/>
</ItemGroupData>
<ItemGroupData ItemGroupOID="IG.ADQS" data:ItemGroupDataSeq="22">
<ItemData ItemOID="IT.ADQS.STUDYID" Value="SASCSTDEMODATA"/>
<ItemData ItemOID="IT.ADQS.USUBJID" Value="S001P001"/>
<ItemData ItemOID="IT.ADQS.TRTP" Value="TRT B"/>
<ItemData ItemOID="IT.ADQS.TRTPN" Value="2"/>
<ItemData ItemOID="IT.ADQS.ADT" Value="17587"/>
<ItemData ItemOID="IT.ADQS.ADY" Value="18"/>
<ItemData ItemOID="IT.ADQS.AVISIT" Value="2 WEEKS"/>
<ItemData ItemOID="IT.ADQS.AVISITN" Value="2"/>
<ItemData ItemOID="IT.ADQS.PARAM" Value="Ideational Praxis"/>
<ItemData ItemOID="IT.ADQS.PARAMCD" Value="ACITM06"/>
<ItemData ItemOID="IT.ADQS.PARAMN" Value="6"/>
<ItemData ItemOID="IT.ADQS.AVAL" Value="0"/>
<ItemData ItemOID="IT.ADQS.QSSEQ" Value="29"/>
<ItemData ItemOID="IT.ADQS.QSCAT" Value="ALZHEIMER'S DISEASE ASSESSMENT SCALE"/>
<ItemData ItemOID="IT.ADQS.QSORRES" Value="0"/>
<ItemData ItemOID="IT.ADQS.QSSTRESC" Value="0"/>
<ItemData ItemOID="IT.ADQS.AGE" Value="48"/>
<ItemData ItemOID="IT.ADQS.SEX" Value="M"/>
<ItemData ItemOID="IT.ADQS.TRTEDT" Value="17597"/>
<ItemData ItemOID="IT.ADQS.TRTSDT" Value="17569"/>
<ItemData ItemOID="IT.ADQS.SAFFL" Value="Y"/>
</ItemGroupData>
<ItemGroupData ItemGroupOID="IG.ADQS" data:ItemGroupDataSeq="23">
<ItemData ItemOID="IT.ADQS.STUDYID" Value="SASCSTDEMODATA"/>
<ItemData ItemOID="IT.ADQS.USUBJID" Value="S001P001"/>
<ItemData ItemOID="IT.ADQS.TRTP" Value="TRT B"/>
<ItemData ItemOID="IT.ADQS.TRTPN" Value="2"/>
<ItemData ItemOID="IT.ADQS.ADT" Value="17605"/>
<ItemData ItemOID="IT.ADQS.ADY" Value="36"/>
<ItemData ItemOID="IT.ADQS.AVISIT" Value="4 WEEKS"/>
<ItemData ItemOID="IT.ADQS.AVISITN" Value="3"/>
<ItemData ItemOID="IT.ADQS.PARAM" Value="Ideational Praxis"/>
<ItemData ItemOID="IT.ADQS.PARAMCD" Value="ACITM06"/>
<ItemData ItemOID="IT.ADQS.PARAMN" Value="6"/>
<ItemData ItemOID="IT.ADQS.AVAL" Value="0"/>
<ItemData ItemOID="IT.ADQS.QSSEQ" Value="30"/>
<ItemData ItemOID="IT.ADQS.QSCAT" Value="ALZHEIMER'S DISEASE ASSESSMENT SCALE"/>
<ItemData ItemOID="IT.ADQS.QSORRES" Value="0"/>
<ItemData ItemOID="IT.ADQS.QSSTRESC" Value="0"/>
<ItemData ItemOID="IT.ADQS.AGE" Value="48"/>
<ItemData ItemOID="IT.ADQS.SEX" Value="M"/>
<ItemData ItemOID="IT.ADQS.TRTEDT" Value="17597"/>
<ItemData ItemOID="IT.ADQS.TRTSDT" Value="17569"/>
<ItemData ItemOID="IT.ADQS.SAFFL" Value="Y"/>
</ItemGroupData>
<ItemGroupData ItemGroupOID="IG.ADQS" data:ItemGroupDataSeq="24">
<ItemData ItemOID="IT.ADQS.STUDYID" Value="SASCSTDEMODATA"/>
<ItemData ItemOID="IT.ADQS.USUBJID" Value="S001P001"/>
<ItemData ItemOID="IT.ADQS.TRTP" Value="TRT B"/>
<ItemData ItemOID="IT.ADQS.TRTPN" Value="2"/>
<ItemData ItemOID="IT.ADQS.ADT" Value="17612"/>
<ItemData ItemOID="IT.ADQS.ADY" Value="43"/>
<ItemData ItemOID="IT.ADQS.AVISIT" Value="6 WEEKS"/>
<ItemData ItemOID="IT.ADQS.AVISITN" Value="4"/>
<ItemData ItemOID="IT.ADQS.PARAM" Value="Ideational Praxis"/>
<ItemData ItemOID="IT.ADQS.PARAMCD" Value="ACITM06"/>
<ItemData ItemOID="IT.ADQS.PARAMN" Value="6"/>
<ItemData ItemOID="IT.ADQS.AVAL" Value="0"/>
<ItemData ItemOID="IT.ADQS.QSSEQ" Value="31"/>
<ItemData ItemOID="IT.ADQS.QSCAT" Value="ALZHEIMER'S DISEASE ASSESSMENT SCALE"/>
<ItemData ItemOID="IT.ADQS.QSORRES" Value="0"/>
<ItemData ItemOID="IT.ADQS.QSSTRESC" Value="0"/>
<ItemData ItemOID="IT.ADQS.AGE" Value="48"/>
<ItemData ItemOID="IT.ADQS.SEX" Value="M"/>
<ItemData ItemOID="IT.ADQS.TRTEDT" Value="17597"/>
<ItemData ItemOID="IT.ADQS.TRTSDT" Value="17569"/>
<ItemData ItemOID="IT.ADQS.SAFFL" Value="Y"/>
</ItemGroupData>
<ItemGroupData ItemGroupOID="IG.ADQS" data:ItemGroupDataSeq="25">
<ItemData ItemOID="IT.ADQS.STUDYID" Value="SASCSTDEMODATA"/>
<ItemData ItemOID="IT.ADQS.USUBJID" Value="S001P001"/>
<ItemData ItemOID="IT.ADQS.TRTP" Value="TRT B"/>
<ItemData ItemOID="IT.ADQS.TRTPN" Value="2"/>
<ItemData ItemOID="IT.ADQS.ADT" Value="17570"/>
<ItemData ItemOID="IT.ADQS.ADY" Value="1"/>
<ItemData ItemOID="IT.ADQS.AVISIT" Value="RANDOMIZATION"/>
<ItemData ItemOID="IT.ADQS.AVISITN" Value="1"/>
<ItemData ItemOID="IT.ADQS.PARAM" Value="Orientation"/>
<ItemData ItemOID="IT.ADQS.PARAMCD" Value="ACITM07"/>
<ItemData ItemOID="IT.ADQS.PARAMN" Value="7"/>
<ItemData ItemOID="IT.ADQS.AVAL" Value="1"/>
<ItemData ItemOID="IT.ADQS.QSSEQ" Value="40"/>
<ItemData ItemOID="IT.ADQS.QSCAT" Value="ALZHEIMER'S DISEASE ASSESSMENT SCALE"/>
<ItemData ItemOID="IT.ADQS.QSORRES" Value="1"/>
<ItemData ItemOID="IT.ADQS.QSSTRESC" Value="1"/>
<ItemData ItemOID="IT.ADQS.AGE" Value="48"/>
<ItemData ItemOID="IT.ADQS.SEX" Value="M"/>
<ItemData ItemOID="IT.ADQS.TRTEDT" Value="17597"/>
<ItemData ItemOID="IT.ADQS.TRTSDT" Value="17569"/>
<ItemData ItemOID="IT.ADQS.SAFFL" Value="Y"/>
</ItemGroupData>
<ItemGroupData ItemGroupOID="IG.ADQS" data:ItemGroupDataSeq="26">
<ItemData ItemOID="IT.ADQS.STUDYID" Value="SASCSTDEMODATA"/>
<ItemData ItemOID="IT.ADQS.USUBJID" Value="S001P001"/>
<ItemData ItemOID="IT.ADQS.TRTP" Value="TRT B"/>
<ItemData ItemOID="IT.ADQS.TRTPN" Value="2"/>
<ItemData ItemOID="IT.ADQS.ADT" Value="17587"/>
<ItemData ItemOID="IT.ADQS.ADY" Value="18"/>
<ItemData ItemOID="IT.ADQS.AVISIT" Value="2 WEEKS"/>
<ItemData ItemOID="IT.ADQS.AVISITN" Value="2"/>
<ItemData ItemOID="IT.ADQS.PARAM" Value="Orientation"/>
<ItemData ItemOID="IT.ADQS.PARAMCD" Value="ACITM07"/>
<ItemData ItemOID="IT.ADQS.PARAMN" Value="7"/>
<ItemData ItemOID="IT.ADQS.AVAL" Value="0"/>
<ItemData ItemOID="IT.ADQS.QSSEQ" Value="41"/>
<ItemData ItemOID="IT.ADQS.QSCAT" Value="ALZHEIMER'S DISEASE ASSESSMENT SCALE"/>
<ItemData ItemOID="IT.ADQS.QSORRES" Value="0"/>
<ItemData ItemOID="IT.ADQS.QSSTRESC" Value="0"/>
<ItemData ItemOID="IT.ADQS.AGE" Value="48"/>
<ItemData ItemOID="IT.ADQS.SEX" Value="M"/>
<ItemData ItemOID="IT.ADQS.TRTEDT" Value="17597"/>
<ItemData ItemOID="IT.ADQS.TRTSDT" Value="17569"/>
<ItemData ItemOID="IT.ADQS.SAFFL" Value="Y"/>
</ItemGroupData>
<ItemGroupData ItemGroupOID="IG.ADQS" data:ItemGroupDataSeq="27">
<ItemData ItemOID="IT.ADQS.STUDYID" Value="SASCSTDEMODATA"/>
<ItemData ItemOID="IT.ADQS.USUBJID" Value="S001P001"/>
<ItemData ItemOID="IT.ADQS.TRTP" Value="TRT B"/>
<ItemData ItemOID="IT.ADQS.TRTPN" Value="2"/>
<ItemData ItemOID="IT.ADQS.ADT" Value="17605"/>
<ItemData ItemOID="IT.ADQS.ADY" Value="36"/>
<ItemData ItemOID="IT.ADQS.AVISIT" Value="4 WEEKS"/>
<ItemData ItemOID="IT.ADQS.AVISITN" Value="3"/>
<ItemData ItemOID="IT.ADQS.PARAM" Value="Orientation"/>
<ItemData ItemOID="IT.ADQS.PARAMCD" Value="ACITM07"/>
<ItemData ItemOID="IT.ADQS.PARAMN" Value="7"/>
<ItemData ItemOID="IT.ADQS.AVAL" Value="0"/>
<ItemData ItemOID="IT.ADQS.QSSEQ" Value="42"/>
<ItemData ItemOID="IT.ADQS.QSCAT" Value="ALZHEIMER'S DISEASE ASSESSMENT SCALE"/>
<ItemData ItemOID="IT.ADQS.QSORRES" Value="0"/>
<ItemData ItemOID="IT.ADQS.QSSTRESC" Value="0"/>
<ItemData ItemOID="IT.ADQS.AGE" Value="48"/>
<ItemData ItemOID="IT.ADQS.SEX" Value="M"/>
<ItemData ItemOID="IT.ADQS.TRTEDT" Value="17597"/>
<ItemData ItemOID="IT.ADQS.TRTSDT" Value="17569"/>
<ItemData ItemOID="IT.ADQS.SAFFL" Value="Y"/>
</ItemGroupData>
<ItemGroupData ItemGroupOID="IG.ADQS" data:ItemGroupDataSeq="28">
<ItemData ItemOID="IT.ADQS.STUDYID" Value="SASCSTDEMODATA"/>
<ItemData ItemOID="IT.ADQS.USUBJID" Value="S001P001"/>
<ItemData ItemOID="IT.ADQS.TRTP" Value="TRT B"/>
<ItemData ItemOID="IT.ADQS.TRTPN" Value="2"/>
<ItemData ItemOID="IT.ADQS.ADT" Value="17612"/>
<ItemData ItemOID="IT.ADQS.ADY" Value="43"/>
<ItemData ItemOID="IT.ADQS.AVISIT" Value="6 WEEKS"/>
<ItemData ItemOID="IT.ADQS.AVISITN" Value="4"/>
<ItemData ItemOID="IT.ADQS.PARAM" Value="Orientation"/>
<ItemData ItemOID="IT.ADQS.PARAMCD" Value="ACITM07"/>
<ItemData ItemOID="IT.ADQS.PARAMN" Value="7"/>
<ItemData ItemOID="IT.ADQS.AVAL" Value="1"/>
<ItemData ItemOID="IT.ADQS.QSSEQ" Value="43"/>
<ItemData ItemOID="IT.ADQS.QSCAT" Value="ALZHEIMER'S DISEASE ASSESSMENT SCALE"/>
<ItemData ItemOID="IT.ADQS.QSORRES" Value="1"/>
<ItemData ItemOID="IT.ADQS.QSSTRESC" Value="1"/>
<ItemData ItemOID="IT.ADQS.AGE" Value="48"/>
<ItemData ItemOID="IT.ADQS.SEX" Value="M"/>
<ItemData ItemOID="IT.ADQS.TRTEDT" Value="17597"/>
<ItemData ItemOID="IT.ADQS.TRTSDT" Value="17569"/>
<ItemData ItemOID="IT.ADQS.SAFFL" Value="Y"/>
</ItemGroupData>
<ItemGroupData ItemGroupOID="IG.ADQS" data:ItemGroupDataSeq="29">
<ItemData ItemOID="IT.ADQS.STUDYID" Value="SASCSTDEMODATA"/>
<ItemData ItemOID="IT.ADQS.USUBJID" Value="S001P001"/>
<ItemData ItemOID="IT.ADQS.TRTP" Value="TRT B"/>
<ItemData ItemOID="IT.ADQS.TRTPN" Value="2"/>
<ItemData ItemOID="IT.ADQS.ADT" Value="17570"/>
<ItemData ItemOID="IT.ADQS.ADY" Value="1"/>
<ItemData ItemOID="IT.ADQS.AVISIT" Value="RANDOMIZATION"/>
<ItemData ItemOID="IT.ADQS.AVISITN" Value="1"/>
<ItemData ItemOID="IT.ADQS.PARAM" Value="Word Recognition"/>
<ItemData ItemOID="IT.ADQS.PARAMCD" Value="ACITM08"/>
<ItemData ItemOID="IT.ADQS.PARAMN" Value="8"/>
<ItemData ItemOID="IT.ADQS.AVAL" Value="1"/>
<ItemData ItemOID="IT.ADQS.QSSEQ" Value="60"/>
<ItemData ItemOID="IT.ADQS.QSCAT" Value="ALZHEIMER'S DISEASE ASSESSMENT SCALE"/>
<ItemData ItemOID="IT.ADQS.QSORRES" Value="1"/>
<ItemData ItemOID="IT.ADQS.QSSTRESC" Value="1"/>
<ItemData ItemOID="IT.ADQS.AGE" Value="48"/>
<ItemData ItemOID="IT.ADQS.SEX" Value="M"/>
<ItemData ItemOID="IT.ADQS.TRTEDT" Value="17597"/>
<ItemData ItemOID="IT.ADQS.TRTSDT" Value="17569"/>
<ItemData ItemOID="IT.ADQS.SAFFL" Value="Y"/>
</ItemGroupData>
<ItemGroupData ItemGroupOID="IG.ADQS" data:ItemGroupDataSeq="30">
<ItemData ItemOID="IT.ADQS.STUDYID" Value="SASCSTDEMODATA"/>
<ItemData ItemOID="IT.ADQS.USUBJID" Value="S001P001"/>
<ItemData ItemOID="IT.ADQS.TRTP" Value="TRT B"/>
<ItemData ItemOID="IT.ADQS.TRTPN" Value="2"/>
<ItemData ItemOID="IT.ADQS.ADT" Value="17587"/>
<ItemData ItemOID="IT.ADQS.ADY" Value="18"/>
<ItemData ItemOID="IT.ADQS.AVISIT" Value="2 WEEKS"/>
<ItemData ItemOID="IT.ADQS.AVISITN" Value="2"/>
<ItemData ItemOID="IT.ADQS.PARAM" Value="Word Recognition"/>
<ItemData ItemOID="IT.ADQS.PARAMCD" Value="ACITM08"/>
<ItemData ItemOID="IT.ADQS.PARAMN" Value="8"/>
<ItemData ItemOID="IT.ADQS.AVAL" Value="0"/>
<ItemData ItemOID="IT.ADQS.QSSEQ" Value="61"/>
<ItemData ItemOID="IT.ADQS.QSCAT" Value="ALZHEIMER'S DISEASE ASSESSMENT SCALE"/>
<ItemData ItemOID="IT.ADQS.QSORRES" Value="0"/>
<ItemData ItemOID="IT.ADQS.QSSTRESC" Value="0"/>
<ItemData ItemOID="IT.ADQS.AGE" Value="48"/>
<ItemData ItemOID="IT.ADQS.SEX" Value="M"/>
<ItemData ItemOID="IT.ADQS.TRTEDT" Value="17597"/>
<ItemData ItemOID="IT.ADQS.TRTSDT" Value="17569"/>
<ItemData ItemOID="IT.ADQS.SAFFL" Value="Y"/>
</ItemGroupData>
<ItemGroupData ItemGroupOID="IG.ADQS" data:ItemGroupDataSeq="31">
<ItemData ItemOID="IT.ADQS.STUDYID" Value="SASCSTDEMODATA"/>
<ItemData ItemOID="IT.ADQS.USUBJID" Value="S001P001"/>
<ItemData ItemOID="IT.ADQS.TRTP" Value="TRT B"/>
<ItemData ItemOID="IT.ADQS.TRTPN" Value="2"/>
<ItemData ItemOID="IT.ADQS.ADT" Value="17605"/>
<ItemData ItemOID="IT.ADQS.ADY" Value="36"/>
<ItemData ItemOID="IT.ADQS.AVISIT" Value="4 WEEKS"/>
<ItemData ItemOID="IT.ADQS.AVISITN" Value="3"/>
<ItemData ItemOID="IT.ADQS.PARAM" Value="Word Recognition"/>
<ItemData ItemOID="IT.ADQS.PARAMCD" Value="ACITM08"/>
<ItemData ItemOID="IT.ADQS.PARAMN" Value="8"/>
<ItemData ItemOID="IT.ADQS.AVAL" Value="1"/>
<ItemData ItemOID="IT.ADQS.QSSEQ" Value="62"/>
<ItemData ItemOID="IT.ADQS.QSCAT" Value="ALZHEIMER'S DISEASE ASSESSMENT SCALE"/>
<ItemData ItemOID="IT.ADQS.QSORRES" Value="1"/>
<ItemData ItemOID="IT.ADQS.QSSTRESC" Value="1"/>
<ItemData ItemOID="IT.ADQS.AGE" Value="48"/>
<ItemData ItemOID="IT.ADQS.SEX" Value="M"/>
<ItemData ItemOID="IT.ADQS.TRTEDT" Value="17597"/>
<ItemData ItemOID="IT.ADQS.TRTSDT" Value="17569"/>
<ItemData ItemOID="IT.ADQS.SAFFL" Value="Y"/>
</ItemGroupData>
<ItemGroupData ItemGroupOID="IG.ADQS" data:ItemGroupDataSeq="32">
<ItemData ItemOID="IT.ADQS.STUDYID" Value="SASCSTDEMODATA"/>
<ItemData ItemOID="IT.ADQS.USUBJID" Value="S001P001"/>
<ItemData ItemOID="IT.ADQS.TRTP" Value="TRT B"/>
<ItemData ItemOID="IT.ADQS.TRTPN" Value="2"/>
<ItemData ItemOID="IT.ADQS.ADT" Value="17612"/>
<ItemData ItemOID="IT.ADQS.ADY" Value="43"/>
<ItemData ItemOID="IT.ADQS.AVISIT" Value="6 WEEKS"/>
<ItemData ItemOID="IT.ADQS.AVISITN" Value="4"/>
<ItemData ItemOID="IT.ADQS.PARAM" Value="Word Recognition"/>
<ItemData ItemOID="IT.ADQS.PARAMCD" Value="ACITM08"/>
<ItemData ItemOID="IT.ADQS.PARAMN" Value="8"/>
<ItemData ItemOID="IT.ADQS.AVAL" Value="1"/>
<ItemData ItemOID="IT.ADQS.QSSEQ" Value="63"/>
<ItemData ItemOID="IT.ADQS.QSCAT" Value="ALZHEIMER'S DISEASE ASSESSMENT SCALE"/>
<ItemData ItemOID="IT.ADQS.QSORRES" Value="1"/>
<ItemData ItemOID="IT.ADQS.QSSTRESC" Value="1"/>
<ItemData ItemOID="IT.ADQS.AGE" Value="48"/>
<ItemData ItemOID="IT.ADQS.SEX" Value="M"/>
<ItemData ItemOID="IT.ADQS.TRTEDT" Value="17597"/>
<ItemData ItemOID="IT.ADQS.TRTSDT" Value="17569"/>
<ItemData ItemOID="IT.ADQS.SAFFL" Value="Y"/>
</ItemGroupData>
<ItemGroupData ItemGroupOID="IG.ADQS" data:ItemGroupDataSeq="33">
<ItemData ItemOID="IT.ADQS.STUDYID" Value="SASCSTDEMODATA"/>
<ItemData ItemOID="IT.ADQS.USUBJID" Value="S001P001"/>
<ItemData ItemOID="IT.ADQS.TRTP" Value="TRT B"/>
<ItemData ItemOID="IT.ADQS.TRTPN" Value="2"/>
<ItemData ItemOID="IT.ADQS.ADT" Value="17570"/>
<ItemData ItemOID="IT.ADQS.ADY" Value="1"/>
<ItemData ItemOID="IT.ADQS.AVISIT" Value="RANDOMIZATION"/>
<ItemData ItemOID="IT.ADQS.AVISITN" Value="1"/>
<ItemData ItemOID="IT.ADQS.PARAM" Value="Attention/Visual Search Task"/>
<ItemData ItemOID="IT.ADQS.PARAMCD" Value="ACITM09"/>
<ItemData ItemOID="IT.ADQS.PARAMN" Value="9"/>
<ItemData ItemOID="IT.ADQS.AVAL" Value="23"/>
<ItemData ItemOID="IT.ADQS.QSSEQ" Value="5"/>
<ItemData ItemOID="IT.ADQS.QSCAT" Value="ALZHEIMER'S DISEASE ASSESSMENT SCALE"/>
<ItemData ItemOID="IT.ADQS.QSORRES" Value="23"/>
<ItemData ItemOID="IT.ADQS.QSSTRESC" Value="23"/>
<ItemData ItemOID="IT.ADQS.AGE" Value="48"/>
<ItemData ItemOID="IT.ADQS.SEX" Value="M"/>
<ItemData ItemOID="IT.ADQS.TRTEDT" Value="17597"/>
<ItemData ItemOID="IT.ADQS.TRTSDT" Value="17569"/>
<ItemData ItemOID="IT.ADQS.SAFFL" Value="Y"/>
</ItemGroupData>
<ItemGroupData ItemGroupOID="IG.ADQS" data:ItemGroupDataSeq="34">
<ItemData ItemOID="IT.ADQS.STUDYID" Value="SASCSTDEMODATA"/>
<ItemData ItemOID="IT.ADQS.USUBJID" Value="S001P001"/>
<ItemData ItemOID="IT.ADQS.TRTP" Value="TRT B"/>
<ItemData ItemOID="IT.ADQS.TRTPN" Value="2"/>
<ItemData ItemOID="IT.ADQS.ADT" Value="17587"/>
<ItemData ItemOID="IT.ADQS.ADY" Value="18"/>
<ItemData ItemOID="IT.ADQS.AVISIT" Value="2 WEEKS"/>
<ItemData ItemOID="IT.ADQS.AVISITN" Value="2"/>
<ItemData ItemOID="IT.ADQS.PARAM" Value="Attention/Visual Search Task"/>
<ItemData ItemOID="IT.ADQS.PARAMCD" Value="ACITM09"/>
<ItemData ItemOID="IT.ADQS.PARAMN" Value="9"/>
<ItemData ItemOID="IT.ADQS.AVAL" Value="27"/>
<ItemData ItemOID="IT.ADQS.QSSEQ" Value="6"/>
<ItemData ItemOID="IT.ADQS.QSCAT" Value="ALZHEIMER'S DISEASE ASSESSMENT SCALE"/>
<ItemData ItemOID="IT.ADQS.QSORRES" Value="27"/>
<ItemData ItemOID="IT.ADQS.QSSTRESC" Value="27"/>
<ItemData ItemOID="IT.ADQS.AGE" Value="48"/>
<ItemData ItemOID="IT.ADQS.SEX" Value="M"/>
<ItemData ItemOID="IT.ADQS.TRTEDT" Value="17597"/>
<ItemData ItemOID="IT.ADQS.TRTSDT" Value="17569"/>
<ItemData ItemOID="IT.ADQS.SAFFL" Value="Y"/>
</ItemGroupData>
<ItemGroupData ItemGroupOID="IG.ADQS" data:ItemGroupDataSeq="35">
<ItemData ItemOID="IT.ADQS.STUDYID" Value="SASCSTDEMODATA"/>
<ItemData ItemOID="IT.ADQS.USUBJID" Value="S001P001"/>
<ItemData ItemOID="IT.ADQS.TRTP" Value="TRT B"/>
<ItemData ItemOID="IT.ADQS.TRTPN" Value="2"/>
<ItemData ItemOID="IT.ADQS.ADT" Value="17605"/>
<ItemData ItemOID="IT.ADQS.ADY" Value="36"/>
<ItemData ItemOID="IT.ADQS.AVISIT" Value="4 WEEKS"/>
<ItemData ItemOID="IT.ADQS.AVISITN" Value="3"/>
<ItemData ItemOID="IT.ADQS.PARAM" Value="Attention/Visual Search Task"/>
<ItemData ItemOID="IT.ADQS.PARAMCD" Value="ACITM09"/>
<ItemData ItemOID="IT.ADQS.PARAMN" Value="9"/>
<ItemData ItemOID="IT.ADQS.AVAL" Value="34"/>
<ItemData ItemOID="IT.ADQS.QSSEQ" Value="7"/>
<ItemData ItemOID="IT.ADQS.QSCAT" Value="ALZHEIMER'S DISEASE ASSESSMENT SCALE"/>
<ItemData ItemOID="IT.ADQS.QSORRES" Value="34"/>
<ItemData ItemOID="IT.ADQS.QSSTRESC" Value="34"/>
<ItemData ItemOID="IT.ADQS.AGE" Value="48"/>
<ItemData ItemOID="IT.ADQS.SEX" Value="M"/>
<ItemData ItemOID="IT.ADQS.TRTEDT" Value="17597"/>
<ItemData ItemOID="IT.ADQS.TRTSDT" Value="17569"/>
<ItemData ItemOID="IT.ADQS.SAFFL" Value="Y"/>
</ItemGroupData>
<ItemGroupData ItemGroupOID="IG.ADQS" data:ItemGroupDataSeq="36">
<ItemData ItemOID="IT.ADQS.STUDYID" Value="SASCSTDEMODATA"/>
<ItemData ItemOID="IT.ADQS.USUBJID" Value="S001P001"/>
<ItemData ItemOID="IT.ADQS.TRTP" Value="TRT B"/>
<ItemData ItemOID="IT.ADQS.TRTPN" Value="2"/>
<ItemData ItemOID="IT.ADQS.ADT" Value="17612"/>
<ItemData ItemOID="IT.ADQS.ADY" Value="43"/>
<ItemData ItemOID="IT.ADQS.AVISIT" Value="6 WEEKS"/>
<ItemData ItemOID="IT.ADQS.AVISITN" Value="4"/>
<ItemData ItemOID="IT.ADQS.PARAM" Value="Attention/Visual Search Task"/>
<ItemData ItemOID="IT.ADQS.PARAMCD" Value="ACITM09"/>
<ItemData ItemOID="IT.ADQS.PARAMN" Value="9"/>
<ItemData ItemOID="IT.ADQS.AVAL" Value="39"/>
<ItemData ItemOID="IT.ADQS.QSSEQ" Value="8"/>
<ItemData ItemOID="IT.ADQS.QSCAT" Value="ALZHEIMER'S DISEASE ASSESSMENT SCALE"/>
<ItemData ItemOID="IT.ADQS.QSORRES" Value="39"/>
<ItemData ItemOID="IT.ADQS.QSSTRESC" Value="39"/>
<ItemData ItemOID="IT.ADQS.AGE" Value="48"/>
<ItemData ItemOID="IT.ADQS.SEX" Value="M"/>
<ItemData ItemOID="IT.ADQS.TRTEDT" Value="17597"/>
<ItemData ItemOID="IT.ADQS.TRTSDT" Value="17569"/>
<ItemData ItemOID="IT.ADQS.SAFFL" Value="Y"/>
</ItemGroupData>
<ItemGroupData ItemGroupOID="IG.ADQS" data:ItemGroupDataSeq="37">
<ItemData ItemOID="IT.ADQS.STUDYID" Value="SASCSTDEMODATA"/>
<ItemData ItemOID="IT.ADQS.USUBJID" Value="S001P001"/>
<ItemData ItemOID="IT.ADQS.TRTP" Value="TRT B"/>
<ItemData ItemOID="IT.ADQS.TRTPN" Value="2"/>
<ItemData ItemOID="IT.ADQS.ADT" Value="17570"/>
<ItemData ItemOID="IT.ADQS.ADY" Value="1"/>
<ItemData ItemOID="IT.ADQS.AVISIT" Value="RANDOMIZATION"/>
<ItemData ItemOID="IT.ADQS.AVISITN" Value="1"/>
<ItemData ItemOID="IT.ADQS.PARAM" Value="Maze Solution"/>
<ItemData ItemOID="IT.ADQS.PARAMCD" Value="ACITM10"/>
<ItemData ItemOID="IT.ADQS.PARAMN" Value="10"/>
<ItemData ItemOID="IT.ADQS.AVAL" Value="3"/>
<ItemData ItemOID="IT.ADQS.QSSEQ" Value="32"/>
<ItemData ItemOID="IT.ADQS.QSCAT" Value="ALZHEIMER'S DISEASE ASSESSMENT SCALE"/>
<ItemData ItemOID="IT.ADQS.QSORRES" Value="3"/>
<ItemData ItemOID="IT.ADQS.QSORRESU" Value="seconds"/>
<ItemData ItemOID="IT.ADQS.QSSTRESC" Value="3"/>
<ItemData ItemOID="IT.ADQS.QSSTRESU" Value="seconds"/>
<ItemData ItemOID="IT.ADQS.AGE" Value="48"/>
<ItemData ItemOID="IT.ADQS.SEX" Value="M"/>
<ItemData ItemOID="IT.ADQS.TRTEDT" Value="17597"/>
<ItemData ItemOID="IT.ADQS.TRTSDT" Value="17569"/>
<ItemData ItemOID="IT.ADQS.SAFFL" Value="Y"/>
</ItemGroupData>
<ItemGroupData ItemGroupOID="IG.ADQS" data:ItemGroupDataSeq="38">
<ItemData ItemOID="IT.ADQS.STUDYID" Value="SASCSTDEMODATA"/>
<ItemData ItemOID="IT.ADQS.USUBJID" Value="S001P001"/>
<ItemData ItemOID="IT.ADQS.TRTP" Value="TRT B"/>
<ItemData ItemOID="IT.ADQS.TRTPN" Value="2"/>
<ItemData ItemOID="IT.ADQS.ADT" Value="17587"/>
<ItemData ItemOID="IT.ADQS.ADY" Value="18"/>
<ItemData ItemOID="IT.ADQS.AVISIT" Value="2 WEEKS"/>
<ItemData ItemOID="IT.ADQS.AVISITN" Value="2"/>
<ItemData ItemOID="IT.ADQS.PARAM" Value="Maze Solution"/>
<ItemData ItemOID="IT.ADQS.PARAMCD" Value="ACITM10"/>
<ItemData ItemOID="IT.ADQS.PARAMN" Value="10"/>
<ItemData ItemOID="IT.ADQS.AVAL" Value="4"/>
<ItemData ItemOID="IT.ADQS.QSSEQ" Value="33"/>
<ItemData ItemOID="IT.ADQS.QSCAT" Value="ALZHEIMER'S DISEASE ASSESSMENT SCALE"/>
<ItemData ItemOID="IT.ADQS.QSORRES" Value="4"/>
<ItemData ItemOID="IT.ADQS.QSORRESU" Value="seconds"/>
<ItemData ItemOID="IT.ADQS.QSSTRESC" Value="4"/>
<ItemData ItemOID="IT.ADQS.QSSTRESU" Value="seconds"/>
<ItemData ItemOID="IT.ADQS.AGE" Value="48"/>
<ItemData ItemOID="IT.ADQS.SEX" Value="M"/>
<ItemData ItemOID="IT.ADQS.TRTEDT" Value="17597"/>
<ItemData ItemOID="IT.ADQS.TRTSDT" Value="17569"/>
<ItemData ItemOID="IT.ADQS.SAFFL" Value="Y"/>
</ItemGroupData>
<ItemGroupData ItemGroupOID="IG.ADQS" data:ItemGroupDataSeq="39">
<ItemData ItemOID="IT.ADQS.STUDYID" Value="SASCSTDEMODATA"/>
<ItemData ItemOID="IT.ADQS.USUBJID" Value="S001P001"/>
<ItemData ItemOID="IT.ADQS.TRTP" Value="TRT B"/>
<ItemData ItemOID="IT.ADQS.TRTPN" Value="2"/>
<ItemData ItemOID="IT.ADQS.ADT" Value="17605"/>
<ItemData ItemOID="IT.ADQS.ADY" Value="36"/>
<ItemData ItemOID="IT.ADQS.AVISIT" Value="4 WEEKS"/>
<ItemData ItemOID="IT.ADQS.AVISITN" Value="3"/>
<ItemData ItemOID="IT.ADQS.PARAM" Value="Maze Solution"/>
<ItemData ItemOID="IT.ADQS.PARAMCD" Value="ACITM10"/>
<ItemData ItemOID="IT.ADQS.PARAMN" Value="10"/>
<ItemData ItemOID="IT.ADQS.AVAL" Value="4"/>
<ItemData ItemOID="IT.ADQS.QSSEQ" Value="34"/>
<ItemData ItemOID="IT.ADQS.QSCAT" Value="ALZHEIMER'S DISEASE ASSESSMENT SCALE"/>
<ItemData ItemOID="IT.ADQS.QSORRES" Value="4"/>
<ItemData ItemOID="IT.ADQS.QSORRESU" Value="seconds"/>
<ItemData ItemOID="IT.ADQS.QSSTRESC" Value="4"/>
<ItemData ItemOID="IT.ADQS.QSSTRESU" Value="seconds"/>
<ItemData ItemOID="IT.ADQS.AGE" Value="48"/>
<ItemData ItemOID="IT.ADQS.SEX" Value="M"/>
<ItemData ItemOID="IT.ADQS.TRTEDT" Value="17597"/>
<ItemData ItemOID="IT.ADQS.TRTSDT" Value="17569"/>
<ItemData ItemOID="IT.ADQS.SAFFL" Value="Y"/>
</ItemGroupData>
<ItemGroupData ItemGroupOID="IG.ADQS" data:ItemGroupDataSeq="40">
<ItemData ItemOID="IT.ADQS.STUDYID" Value="SASCSTDEMODATA"/>
<ItemData ItemOID="IT.ADQS.USUBJID" Value="S001P001"/>
<ItemData ItemOID="IT.ADQS.TRTP" Value="TRT B"/>
<ItemData ItemOID="IT.ADQS.TRTPN" Value="2"/>
<ItemData ItemOID="IT.ADQS.ADT" Value="17612"/>
<ItemData ItemOID="IT.ADQS.ADY" Value="43"/>
<ItemData ItemOID="IT.ADQS.AVISIT" Value="6 WEEKS"/>
<ItemData ItemOID="IT.ADQS.AVISITN" Value="4"/>
<ItemData ItemOID="IT.ADQS.PARAM" Value="Maze Solution"/>
<ItemData ItemOID="IT.ADQS.PARAMCD" Value="ACITM10"/>
<ItemData ItemOID="IT.ADQS.PARAMN" Value="10"/>
<ItemData ItemOID="IT.ADQS.AVAL" Value="3"/>
<ItemData ItemOID="IT.ADQS.QSSEQ" Value="35"/>
<ItemData ItemOID="IT.ADQS.QSCAT" Value="ALZHEIMER'S DISEASE ASSESSMENT SCALE"/>
<ItemData ItemOID="IT.ADQS.QSORRES" Value="3"/>
<ItemData ItemOID="IT.ADQS.QSORRESU" Value="seconds"/>
<ItemData ItemOID="IT.ADQS.QSSTRESC" Value="3"/>
<ItemData ItemOID="IT.ADQS.QSSTRESU" Value="seconds"/>
<ItemData ItemOID="IT.ADQS.AGE" Value="48"/>
<ItemData ItemOID="IT.ADQS.SEX" Value="M"/>
<ItemData ItemOID="IT.ADQS.TRTEDT" Value="17597"/>
<ItemData ItemOID="IT.ADQS.TRTSDT" Value="17569"/>
<ItemData ItemOID="IT.ADQS.SAFFL" Value="Y"/>
</ItemGroupData>
<ItemGroupData ItemGroupOID="IG.ADQS" data:ItemGroupDataSeq="41">
<ItemData ItemOID="IT.ADQS.STUDYID" Value="SASCSTDEMODATA"/>
<ItemData ItemOID="IT.ADQS.USUBJID" Value="S001P001"/>
<ItemData ItemOID="IT.ADQS.TRTP" Value="TRT B"/>
<ItemData ItemOID="IT.ADQS.TRTPN" Value="2"/>
<ItemData ItemOID="IT.ADQS.ADT" Value="17570"/>
<ItemData ItemOID="IT.ADQS.ADY" Value="1"/>
<ItemData ItemOID="IT.ADQS.AVISIT" Value="RANDOMIZATION"/>
<ItemData ItemOID="IT.ADQS.AVISITN" Value="1"/>
<ItemData ItemOID="IT.ADQS.PARAM" Value="Spoken Language Ability"/>
<ItemData ItemOID="IT.ADQS.PARAMCD" Value="ACITM11"/>
<ItemData ItemOID="IT.ADQS.PARAMN" Value="11"/>
<ItemData ItemOID="IT.ADQS.AVAL" Value="1"/>
<ItemData ItemOID="IT.ADQS.QSSEQ" Value="48"/>
<ItemData ItemOID="IT.ADQS.QSCAT" Value="ALZHEIMER'S DISEASE ASSESSMENT SCALE"/>
<ItemData ItemOID="IT.ADQS.QSORRES" Value="1"/>
<ItemData ItemOID="IT.ADQS.QSSTRESC" Value="1"/>
<ItemData ItemOID="IT.ADQS.AGE" Value="48"/>
<ItemData ItemOID="IT.ADQS.SEX" Value="M"/>
<ItemData ItemOID="IT.ADQS.TRTEDT" Value="17597"/>
<ItemData ItemOID="IT.ADQS.TRTSDT" Value="17569"/>
<ItemData ItemOID="IT.ADQS.SAFFL" Value="Y"/>
</ItemGroupData>
<ItemGroupData ItemGroupOID="IG.ADQS" data:ItemGroupDataSeq="42">
<ItemData ItemOID="IT.ADQS.STUDYID" Value="SASCSTDEMODATA"/>
<ItemData ItemOID="IT.ADQS.USUBJID" Value="S001P001"/>
<ItemData ItemOID="IT.ADQS.TRTP" Value="TRT B"/>
<ItemData ItemOID="IT.ADQS.TRTPN" Value="2"/>
<ItemData ItemOID="IT.ADQS.ADT" Value="17587"/>
<ItemData ItemOID="IT.ADQS.ADY" Value="18"/>
<ItemData ItemOID="IT.ADQS.AVISIT" Value="2 WEEKS"/>
<ItemData ItemOID="IT.ADQS.AVISITN" Value="2"/>
<ItemData ItemOID="IT.ADQS.PARAM" Value="Spoken Language Ability"/>
<ItemData ItemOID="IT.ADQS.PARAMCD" Value="ACITM11"/>
<ItemData ItemOID="IT.ADQS.PARAMN" Value="11"/>
<ItemData ItemOID="IT.ADQS.AVAL" Value="1"/>
<ItemData ItemOID="IT.ADQS.QSSEQ" Value="49"/>
<ItemData ItemOID="IT.ADQS.QSCAT" Value="ALZHEIMER'S DISEASE ASSESSMENT SCALE"/>
<ItemData ItemOID="IT.ADQS.QSORRES" Value="1"/>
<ItemData ItemOID="IT.ADQS.QSSTRESC" Value="1"/>
<ItemData ItemOID="IT.ADQS.AGE" Value="48"/>
<ItemData ItemOID="IT.ADQS.SEX" Value="M"/>
<ItemData ItemOID="IT.ADQS.TRTEDT" Value="17597"/>
<ItemData ItemOID="IT.ADQS.TRTSDT" Value="17569"/>
<ItemData ItemOID="IT.ADQS.SAFFL" Value="Y"/>
</ItemGroupData>
<ItemGroupData ItemGroupOID="IG.ADQS" data:ItemGroupDataSeq="43">
<ItemData ItemOID="IT.ADQS.STUDYID" Value="SASCSTDEMODATA"/>
<ItemData ItemOID="IT.ADQS.USUBJID" Value="S001P001"/>
<ItemData ItemOID="IT.ADQS.TRTP" Value="TRT B"/>
<ItemData ItemOID="IT.ADQS.TRTPN" Value="2"/>
<ItemData ItemOID="IT.ADQS.ADT" Value="17605"/>
<ItemData ItemOID="IT.ADQS.ADY" Value="36"/>
<ItemData ItemOID="IT.ADQS.AVISIT" Value="4 WEEKS"/>
<ItemData ItemOID="IT.ADQS.AVISITN" Value="3"/>
<ItemData ItemOID="IT.ADQS.PARAM" Value="Spoken Language Ability"/>
<ItemData ItemOID="IT.ADQS.PARAMCD" Value="ACITM11"/>
<ItemData ItemOID="IT.ADQS.PARAMN" Value="11"/>
<ItemData ItemOID="IT.ADQS.AVAL" Value="1"/>
<ItemData ItemOID="IT.ADQS.QSSEQ" Value="50"/>
<ItemData ItemOID="IT.ADQS.QSCAT" Value="ALZHEIMER'S DISEASE ASSESSMENT SCALE"/>
<ItemData ItemOID="IT.ADQS.QSORRES" Value="1"/>
<ItemData ItemOID="IT.ADQS.QSSTRESC" Value="1"/>
<ItemData ItemOID="IT.ADQS.AGE" Value="48"/>
<ItemData ItemOID="IT.ADQS.SEX" Value="M"/>
<ItemData ItemOID="IT.ADQS.TRTEDT" Value="17597"/>
<ItemData ItemOID="IT.ADQS.TRTSDT" Value="17569"/>
<ItemData ItemOID="IT.ADQS.SAFFL" Value="Y"/>
</ItemGroupData>
<ItemGroupData ItemGroupOID="IG.ADQS" data:ItemGroupDataSeq="44">
<ItemData ItemOID="IT.ADQS.STUDYID" Value="SASCSTDEMODATA"/>
<ItemData ItemOID="IT.ADQS.USUBJID" Value="S001P001"/>
<ItemData ItemOID="IT.ADQS.TRTP" Value="TRT B"/>
<ItemData ItemOID="IT.ADQS.TRTPN" Value="2"/>
<ItemData ItemOID="IT.ADQS.ADT" Value="17612"/>
<ItemData ItemOID="IT.ADQS.ADY" Value="43"/>
<ItemData ItemOID="IT.ADQS.AVISIT" Value="6 WEEKS"/>
<ItemData ItemOID="IT.ADQS.AVISITN" Value="4"/>
<ItemData ItemOID="IT.ADQS.PARAM" Value="Spoken Language Ability"/>
<ItemData ItemOID="IT.ADQS.PARAMCD" Value="ACITM11"/>
<ItemData ItemOID="IT.ADQS.PARAMN" Value="11"/>
<ItemData ItemOID="IT.ADQS.AVAL" Value="0"/>
<ItemData ItemOID="IT.ADQS.QSSEQ" Value="51"/>
<ItemData ItemOID="IT.ADQS.QSCAT" Value="ALZHEIMER'S DISEASE ASSESSMENT SCALE"/>
<ItemData ItemOID="IT.ADQS.QSORRES" Value="0"/>
<ItemData ItemOID="IT.ADQS.QSSTRESC" Value="0"/>
<ItemData ItemOID="IT.ADQS.AGE" Value="48"/>
<ItemData ItemOID="IT.ADQS.SEX" Value="M"/>
<ItemData ItemOID="IT.ADQS.TRTEDT" Value="17597"/>
<ItemData ItemOID="IT.ADQS.TRTSDT" Value="17569"/>
<ItemData ItemOID="IT.ADQS.SAFFL" Value="Y"/>
</ItemGroupData>
<ItemGroupData ItemGroupOID="IG.ADQS" data:ItemGroupDataSeq="45">
<ItemData ItemOID="IT.ADQS.STUDYID" Value="SASCSTDEMODATA"/>
<ItemData ItemOID="IT.ADQS.USUBJID" Value="S001P001"/>
<ItemData ItemOID="IT.ADQS.TRTP" Value="TRT B"/>
<ItemData ItemOID="IT.ADQS.TRTPN" Value="2"/>
<ItemData ItemOID="IT.ADQS.ADT" Value="17570"/>
<ItemData ItemOID="IT.ADQS.ADY" Value="1"/>
<ItemData ItemOID="IT.ADQS.AVISIT" Value="RANDOMIZATION"/>
<ItemData ItemOID="IT.ADQS.AVISITN" Value="1"/>
<ItemData ItemOID="IT.ADQS.PARAM" Value="Comprehension of Spoken Language"/>
<ItemData ItemOID="IT.ADQS.PARAMCD" Value="ACITM12"/>
<ItemData ItemOID="IT.ADQS.PARAMN" Value="12"/>
<ItemData ItemOID="IT.ADQS.AVAL" Value="1"/>
<ItemData ItemOID="IT.ADQS.QSSEQ" Value="13"/>
<ItemData ItemOID="IT.ADQS.QSCAT" Value="ALZHEIMER'S DISEASE ASSESSMENT SCALE"/>
<ItemData ItemOID="IT.ADQS.QSORRES" Value="1"/>
<ItemData ItemOID="IT.ADQS.QSSTRESC" Value="1"/>
<ItemData ItemOID="IT.ADQS.AGE" Value="48"/>
<ItemData ItemOID="IT.ADQS.SEX" Value="M"/>
<ItemData ItemOID="IT.ADQS.TRTEDT" Value="17597"/>
<ItemData ItemOID="IT.ADQS.TRTSDT" Value="17569"/>
<ItemData ItemOID="IT.ADQS.SAFFL" Value="Y"/>
</ItemGroupData>
<ItemGroupData ItemGroupOID="IG.ADQS" data:ItemGroupDataSeq="46">
<ItemData ItemOID="IT.ADQS.STUDYID" Value="SASCSTDEMODATA"/>
<ItemData ItemOID="IT.ADQS.USUBJID" Value="S001P001"/>
<ItemData ItemOID="IT.ADQS.TRTP" Value="TRT B"/>
<ItemData ItemOID="IT.ADQS.TRTPN" Value="2"/>
<ItemData ItemOID="IT.ADQS.ADT" Value="17587"/>
<ItemData ItemOID="IT.ADQS.ADY" Value="18"/>
<ItemData ItemOID="IT.ADQS.AVISIT" Value="2 WEEKS"/>
<ItemData ItemOID="IT.ADQS.AVISITN" Value="2"/>
<ItemData ItemOID="IT.ADQS.PARAM" Value="Comprehension of Spoken Language"/>
<ItemData ItemOID="IT.ADQS.PARAMCD" Value="ACITM12"/>
<ItemData ItemOID="IT.ADQS.PARAMN" Value="12"/>
<ItemData ItemOID="IT.ADQS.AVAL" Value="1"/>
<ItemData ItemOID="IT.ADQS.QSSEQ" Value="14"/>
<ItemData ItemOID="IT.ADQS.QSCAT" Value="ALZHEIMER'S DISEASE ASSESSMENT SCALE"/>
<ItemData ItemOID="IT.ADQS.QSORRES" Value="1"/>
<ItemData ItemOID="IT.ADQS.QSSTRESC" Value="1"/>
<ItemData ItemOID="IT.ADQS.AGE" Value="48"/>
<ItemData ItemOID="IT.ADQS.SEX" Value="M"/>
<ItemData ItemOID="IT.ADQS.TRTEDT" Value="17597"/>
<ItemData ItemOID="IT.ADQS.TRTSDT" Value="17569"/>
<ItemData ItemOID="IT.ADQS.SAFFL" Value="Y"/>
</ItemGroupData>
<ItemGroupData ItemGroupOID="IG.ADQS" data:ItemGroupDataSeq="47">
<ItemData ItemOID="IT.ADQS.STUDYID" Value="SASCSTDEMODATA"/>
<ItemData ItemOID="IT.ADQS.USUBJID" Value="S001P001"/>
<ItemData ItemOID="IT.ADQS.TRTP" Value="TRT B"/>
<ItemData ItemOID="IT.ADQS.TRTPN" Value="2"/>
<ItemData ItemOID="IT.ADQS.ADT" Value="17605"/>
<ItemData ItemOID="IT.ADQS.ADY" Value="36"/>
<ItemData ItemOID="IT.ADQS.AVISIT" Value="4 WEEKS"/>
<ItemData ItemOID="IT.ADQS.AVISITN" Value="3"/>
<ItemData ItemOID="IT.ADQS.PARAM" Value="Comprehension of Spoken Language"/>
<ItemData ItemOID="IT.ADQS.PARAMCD" Value="ACITM12"/>
<ItemData ItemOID="IT.ADQS.PARAMN" Value="12"/>
<ItemData ItemOID="IT.ADQS.AVAL" Value="1"/>
<ItemData ItemOID="IT.ADQS.QSSEQ" Value="15"/>
<ItemData ItemOID="IT.ADQS.QSCAT" Value="ALZHEIMER'S DISEASE ASSESSMENT SCALE"/>
<ItemData ItemOID="IT.ADQS.QSORRES" Value="1"/>
<ItemData ItemOID="IT.ADQS.QSSTRESC" Value="1"/>
<ItemData ItemOID="IT.ADQS.AGE" Value="48"/>
<ItemData ItemOID="IT.ADQS.SEX" Value="M"/>
<ItemData ItemOID="IT.ADQS.TRTEDT" Value="17597"/>
<ItemData ItemOID="IT.ADQS.TRTSDT" Value="17569"/>
<ItemData ItemOID="IT.ADQS.SAFFL" Value="Y"/>
</ItemGroupData>
<ItemGroupData ItemGroupOID="IG.ADQS" data:ItemGroupDataSeq="48">
<ItemData ItemOID="IT.ADQS.STUDYID" Value="SASCSTDEMODATA"/>
<ItemData ItemOID="IT.ADQS.USUBJID" Value="S001P001"/>
<ItemData ItemOID="IT.ADQS.TRTP" Value="TRT B"/>
<ItemData ItemOID="IT.ADQS.TRTPN" Value="2"/>
<ItemData ItemOID="IT.ADQS.ADT" Value="17612"/>
<ItemData ItemOID="IT.ADQS.ADY" Value="43"/>
<ItemData ItemOID="IT.ADQS.AVISIT" Value="6 WEEKS"/>
<ItemData ItemOID="IT.ADQS.AVISITN" Value="4"/>
<ItemData ItemOID="IT.ADQS.PARAM" Value="Comprehension of Spoken Language"/>
<ItemData ItemOID="IT.ADQS.PARAMCD" Value="ACITM12"/>
<ItemData ItemOID="IT.ADQS.PARAMN" Value="12"/>
<ItemData ItemOID="IT.ADQS.AVAL" Value="0"/>
<ItemData ItemOID="IT.ADQS.QSSEQ" Value="16"/>
<ItemData ItemOID="IT.ADQS.QSCAT" Value="ALZHEIMER'S DISEASE ASSESSMENT SCALE"/>
<ItemData ItemOID="IT.ADQS.QSORRES" Value="0"/>
<ItemData ItemOID="IT.ADQS.QSSTRESC" Value="0"/>
<ItemData ItemOID="IT.ADQS.AGE" Value="48"/>
<ItemData ItemOID="IT.ADQS.SEX" Value="M"/>
<ItemData ItemOID="IT.ADQS.TRTEDT" Value="17597"/>
<ItemData ItemOID="IT.ADQS.TRTSDT" Value="17569"/>
<ItemData ItemOID="IT.ADQS.SAFFL" Value="Y"/>
</ItemGroupData>
<ItemGroupData ItemGroupOID="IG.ADQS" data:ItemGroupDataSeq="49">
<ItemData ItemOID="IT.ADQS.STUDYID" Value="SASCSTDEMODATA"/>
<ItemData ItemOID="IT.ADQS.USUBJID" Value="S001P001"/>
<ItemData ItemOID="IT.ADQS.TRTP" Value="TRT B"/>
<ItemData ItemOID="IT.ADQS.TRTPN" Value="2"/>
<ItemData ItemOID="IT.ADQS.ADT" Value="17570"/>
<ItemData ItemOID="IT.ADQS.ADY" Value="1"/>
<ItemData ItemOID="IT.ADQS.AVISIT" Value="RANDOMIZATION"/>
<ItemData ItemOID="IT.ADQS.AVISITN" Value="1"/>
<ItemData ItemOID="IT.ADQS.PARAM" Value="Word Finding Difficulty in Spontaneous Speech"/>
<ItemData ItemOID="IT.ADQS.PARAMCD" Value="ACITM13"/>
<ItemData ItemOID="IT.ADQS.PARAMN" Value="13"/>
<ItemData ItemOID="IT.ADQS.AVAL" Value="1"/>
<ItemData ItemOID="IT.ADQS.QSSEQ" Value="52"/>
<ItemData ItemOID="IT.ADQS.QSCAT" Value="ALZHEIMER'S DISEASE ASSESSMENT SCALE"/>
<ItemData ItemOID="IT.ADQS.QSORRES" Value="1"/>
<ItemData ItemOID="IT.ADQS.QSSTRESC" Value="1"/>
<ItemData ItemOID="IT.ADQS.AGE" Value="48"/>
<ItemData ItemOID="IT.ADQS.SEX" Value="M"/>
<ItemData ItemOID="IT.ADQS.TRTEDT" Value="17597"/>
<ItemData ItemOID="IT.ADQS.TRTSDT" Value="17569"/>
<ItemData ItemOID="IT.ADQS.SAFFL" Value="Y"/>
</ItemGroupData>
<ItemGroupData ItemGroupOID="IG.ADQS" data:ItemGroupDataSeq="50">
<ItemData ItemOID="IT.ADQS.STUDYID" Value="SASCSTDEMODATA"/>
<ItemData ItemOID="IT.ADQS.USUBJID" Value="S001P001"/>
<ItemData ItemOID="IT.ADQS.TRTP" Value="TRT B"/>
<ItemData ItemOID="IT.ADQS.TRTPN" Value="2"/>
<ItemData ItemOID="IT.ADQS.ADT" Value="17587"/>
<ItemData ItemOID="IT.ADQS.ADY" Value="18"/>
<ItemData ItemOID="IT.ADQS.AVISIT" Value="2 WEEKS"/>
<ItemData ItemOID="IT.ADQS.AVISITN" Value="2"/>
<ItemData ItemOID="IT.ADQS.PARAM" Value="Word Finding Difficulty in Spontaneous Speech"/>
<ItemData ItemOID="IT.ADQS.PARAMCD" Value="ACITM13"/>
<ItemData ItemOID="IT.ADQS.PARAMN" Value="13"/>
<ItemData ItemOID="IT.ADQS.AVAL" Value="1"/>
<ItemData ItemOID="IT.ADQS.QSSEQ" Value="53"/>
<ItemData ItemOID="IT.ADQS.QSCAT" Value="ALZHEIMER'S DISEASE ASSESSMENT SCALE"/>
<ItemData ItemOID="IT.ADQS.QSORRES" Value="1"/>
<ItemData ItemOID="IT.ADQS.QSSTRESC" Value="1"/>
<ItemData ItemOID="IT.ADQS.AGE" Value="48"/>
<ItemData ItemOID="IT.ADQS.SEX" Value="M"/>
<ItemData ItemOID="IT.ADQS.TRTEDT" Value="17597"/>
<ItemData ItemOID="IT.ADQS.TRTSDT" Value="17569"/>
<ItemData ItemOID="IT.ADQS.SAFFL" Value="Y"/>
</ItemGroupData>
<ItemGroupData ItemGroupOID="IG.ADQS" data:ItemGroupDataSeq="51">
<ItemData ItemOID="IT.ADQS.STUDYID" Value="SASCSTDEMODATA"/>
<ItemData ItemOID="IT.ADQS.USUBJID" Value="S001P001"/>
<ItemData ItemOID="IT.ADQS.TRTP" Value="TRT B"/>
<ItemData ItemOID="IT.ADQS.TRTPN" Value="2"/>
<ItemData ItemOID="IT.ADQS.ADT" Value="17605"/>
<ItemData ItemOID="IT.ADQS.ADY" Value="36"/>
<ItemData ItemOID="IT.ADQS.AVISIT" Value="4 WEEKS"/>
<ItemData ItemOID="IT.ADQS.AVISITN" Value="3"/>
<ItemData ItemOID="IT.ADQS.PARAM" Value="Word Finding Difficulty in Spontaneous Speech"/>
<ItemData ItemOID="IT.ADQS.PARAMCD" Value="ACITM13"/>
<ItemData ItemOID="IT.ADQS.PARAMN" Value="13"/>
<ItemData ItemOID="IT.ADQS.AVAL" Value="1"/>
<ItemData ItemOID="IT.ADQS.QSSEQ" Value="54"/>
<ItemData ItemOID="IT.ADQS.QSCAT" Value="ALZHEIMER'S DISEASE ASSESSMENT SCALE"/>
<ItemData ItemOID="IT.ADQS.QSORRES" Value="1"/>
<ItemData ItemOID="IT.ADQS.QSSTRESC" Value="1"/>
<ItemData ItemOID="IT.ADQS.AGE" Value="48"/>
<ItemData ItemOID="IT.ADQS.SEX" Value="M"/>
<ItemData ItemOID="IT.ADQS.TRTEDT" Value="17597"/>
<ItemData ItemOID="IT.ADQS.TRTSDT" Value="17569"/>
<ItemData ItemOID="IT.ADQS.SAFFL" Value="Y"/>
</ItemGroupData>
<ItemGroupData ItemGroupOID="IG.ADQS" data:ItemGroupDataSeq="52">
<ItemData ItemOID="IT.ADQS.STUDYID" Value="SASCSTDEMODATA"/>
<ItemData ItemOID="IT.ADQS.USUBJID" Value="S001P001"/>
<ItemData ItemOID="IT.ADQS.TRTP" Value="TRT B"/>
<ItemData ItemOID="IT.ADQS.TRTPN" Value="2"/>
<ItemData ItemOID="IT.ADQS.ADT" Value="17612"/>
<ItemData ItemOID="IT.ADQS.ADY" Value="43"/>
<ItemData ItemOID="IT.ADQS.AVISIT" Value="6 WEEKS"/>
<ItemData ItemOID="IT.ADQS.AVISITN" Value="4"/>
<ItemData ItemOID="IT.ADQS.PARAM" Value="Word Finding Difficulty in Spontaneous Speech"/>
<ItemData ItemOID="IT.ADQS.PARAMCD" Value="ACITM13"/>
<ItemData ItemOID="IT.ADQS.PARAMN" Value="13"/>
<ItemData ItemOID="IT.ADQS.AVAL" Value="0"/>
<ItemData ItemOID="IT.ADQS.QSSEQ" Value="55"/>
<ItemData ItemOID="IT.ADQS.QSCAT" Value="ALZHEIMER'S DISEASE ASSESSMENT SCALE"/>
<ItemData ItemOID="IT.ADQS.QSORRES" Value="0"/>
<ItemData ItemOID="IT.ADQS.QSSTRESC" Value="0"/>
<ItemData ItemOID="IT.ADQS.AGE" Value="48"/>
<ItemData ItemOID="IT.ADQS.SEX" Value="M"/>
<ItemData ItemOID="IT.ADQS.TRTEDT" Value="17597"/>
<ItemData ItemOID="IT.ADQS.TRTSDT" Value="17569"/>
<ItemData ItemOID="IT.ADQS.SAFFL" Value="Y"/>
</ItemGroupData>
<ItemGroupData ItemGroupOID="IG.ADQS" data:ItemGroupDataSeq="53">
<ItemData ItemOID="IT.ADQS.STUDYID" Value="SASCSTDEMODATA"/>
<ItemData ItemOID="IT.ADQS.USUBJID" Value="S001P001"/>
<ItemData ItemOID="IT.ADQS.TRTP" Value="TRT B"/>
<ItemData ItemOID="IT.ADQS.TRTPN" Value="2"/>
<ItemData ItemOID="IT.ADQS.ADT" Value="17570"/>
<ItemData ItemOID="IT.ADQS.ADY" Value="1"/>
<ItemData ItemOID="IT.ADQS.AVISIT" Value="RANDOMIZATION"/>
<ItemData ItemOID="IT.ADQS.AVISITN" Value="1"/>
<ItemData ItemOID="IT.ADQS.PARAM" Value="Recall of Test Instructions"/>
<ItemData ItemOID="IT.ADQS.PARAMCD" Value="ACITM14"/>
<ItemData ItemOID="IT.ADQS.PARAMN" Value="14"/>
<ItemData ItemOID="IT.ADQS.AVAL" Value="1"/>
<ItemData ItemOID="IT.ADQS.QSSEQ" Value="44"/>
<ItemData ItemOID="IT.ADQS.QSCAT" Value="ALZHEIMER'S DISEASE ASSESSMENT SCALE"/>
<ItemData ItemOID="IT.ADQS.QSORRES" Value="1"/>
<ItemData ItemOID="IT.ADQS.QSSTRESC" Value="1"/>
<ItemData ItemOID="IT.ADQS.AGE" Value="48"/>
<ItemData ItemOID="IT.ADQS.SEX" Value="M"/>
<ItemData ItemOID="IT.ADQS.TRTEDT" Value="17597"/>
<ItemData ItemOID="IT.ADQS.TRTSDT" Value="17569"/>
<ItemData ItemOID="IT.ADQS.SAFFL" Value="Y"/>
</ItemGroupData>
<ItemGroupData ItemGroupOID="IG.ADQS" data:ItemGroupDataSeq="54">
<ItemData ItemOID="IT.ADQS.STUDYID" Value="SASCSTDEMODATA"/>
<ItemData ItemOID="IT.ADQS.USUBJID" Value="S001P001"/>
<ItemData ItemOID="IT.ADQS.TRTP" Value="TRT B"/>
<ItemData ItemOID="IT.ADQS.TRTPN" Value="2"/>
<ItemData ItemOID="IT.ADQS.ADT" Value="17587"/>
<ItemData ItemOID="IT.ADQS.ADY" Value="18"/>
<ItemData ItemOID="IT.ADQS.AVISIT" Value="2 WEEKS"/>
<ItemData ItemOID="IT.ADQS.AVISITN" Value="2"/>
<ItemData ItemOID="IT.ADQS.PARAM" Value="Recall of Test Instructions"/>
<ItemData ItemOID="IT.ADQS.PARAMCD" Value="ACITM14"/>
<ItemData ItemOID="IT.ADQS.PARAMN" Value="14"/>
<ItemData ItemOID="IT.ADQS.AVAL" Value="1"/>
<ItemData ItemOID="IT.ADQS.QSSEQ" Value="45"/>
<ItemData ItemOID="IT.ADQS.QSCAT" Value="ALZHEIMER'S DISEASE ASSESSMENT SCALE"/>
<ItemData ItemOID="IT.ADQS.QSORRES" Value="1"/>
<ItemData ItemOID="IT.ADQS.QSSTRESC" Value="1"/>
<ItemData ItemOID="IT.ADQS.AGE" Value="48"/>
<ItemData ItemOID="IT.ADQS.SEX" Value="M"/>
<ItemData ItemOID="IT.ADQS.TRTEDT" Value="17597"/>
<ItemData ItemOID="IT.ADQS.TRTSDT" Value="17569"/>
<ItemData ItemOID="IT.ADQS.SAFFL" Value="Y"/>
</ItemGroupData>
<ItemGroupData ItemGroupOID="IG.ADQS" data:ItemGroupDataSeq="55">
<ItemData ItemOID="IT.ADQS.STUDYID" Value="SASCSTDEMODATA"/>
<ItemData ItemOID="IT.ADQS.USUBJID" Value="S001P001"/>
<ItemData ItemOID="IT.ADQS.TRTP" Value="TRT B"/>
<ItemData ItemOID="IT.ADQS.TRTPN" Value="2"/>
<ItemData ItemOID="IT.ADQS.ADT" Value="17605"/>
<ItemData ItemOID="IT.ADQS.ADY" Value="36"/>
<ItemData ItemOID="IT.ADQS.AVISIT" Value="4 WEEKS"/>
<ItemData ItemOID="IT.ADQS.AVISITN" Value="3"/>
<ItemData ItemOID="IT.ADQS.PARAM" Value="Recall of Test Instructions"/>
<ItemData ItemOID="IT.ADQS.PARAMCD" Value="ACITM14"/>
<ItemData ItemOID="IT.ADQS.PARAMN" Value="14"/>
<ItemData ItemOID="IT.ADQS.AVAL" Value="1"/>
<ItemData ItemOID="IT.ADQS.QSSEQ" Value="46"/>
<ItemData ItemOID="IT.ADQS.QSCAT" Value="ALZHEIMER'S DISEASE ASSESSMENT SCALE"/>
<ItemData ItemOID="IT.ADQS.QSORRES" Value="1"/>
<ItemData ItemOID="IT.ADQS.QSSTRESC" Value="1"/>
<ItemData ItemOID="IT.ADQS.AGE" Value="48"/>
<ItemData ItemOID="IT.ADQS.SEX" Value="M"/>
<ItemData ItemOID="IT.ADQS.TRTEDT" Value="17597"/>
<ItemData ItemOID="IT.ADQS.TRTSDT" Value="17569"/>
<ItemData ItemOID="IT.ADQS.SAFFL" Value="Y"/>
</ItemGroupData>
<ItemGroupData ItemGroupOID="IG.ADQS" data:ItemGroupDataSeq="56">
<ItemData ItemOID="IT.ADQS.STUDYID" Value="SASCSTDEMODATA"/>
<ItemData ItemOID="IT.ADQS.USUBJID" Value="S001P001"/>
<ItemData ItemOID="IT.ADQS.TRTP" Value="TRT B"/>
<ItemData ItemOID="IT.ADQS.TRTPN" Value="2"/>
<ItemData ItemOID="IT.ADQS.ADT" Value="17612"/>
<ItemData ItemOID="IT.ADQS.ADY" Value="43"/>
<ItemData ItemOID="IT.ADQS.AVISIT" Value="6 WEEKS"/>
<ItemData ItemOID="IT.ADQS.AVISITN" Value="4"/>
<ItemData ItemOID="IT.ADQS.PARAM" Value="Recall of Test Instructions"/>
<ItemData ItemOID="IT.ADQS.PARAMCD" Value="ACITM14"/>
<ItemData ItemOID="IT.ADQS.PARAMN" Value="14"/>
<ItemData ItemOID="IT.ADQS.AVAL" Value="0"/>
<ItemData ItemOID="IT.ADQS.QSSEQ" Value="47"/>
<ItemData ItemOID="IT.ADQS.QSCAT" Value="ALZHEIMER'S DISEASE ASSESSMENT SCALE"/>
<ItemData ItemOID="IT.ADQS.QSORRES" Value="0"/>
<ItemData ItemOID="IT.ADQS.QSSTRESC" Value="0"/>
<ItemData ItemOID="IT.ADQS.AGE" Value="48"/>
<ItemData ItemOID="IT.ADQS.SEX" Value="M"/>
<ItemData ItemOID="IT.ADQS.TRTEDT" Value="17597"/>
<ItemData ItemOID="IT.ADQS.TRTSDT" Value="17569"/>
<ItemData ItemOID="IT.ADQS.SAFFL" Value="Y"/>
</ItemGroupData>
<ItemGroupData ItemGroupOID="IG.ADQS" data:ItemGroupDataSeq="57">
<ItemData ItemOID="IT.ADQS.STUDYID" Value="SASCSTDEMODATA"/>
<ItemData ItemOID="IT.ADQS.USUBJID" Value="S001P001"/>
<ItemData ItemOID="IT.ADQS.TRTP" Value="TRT B"/>
<ItemData ItemOID="IT.ADQS.TRTPN" Value="2"/>
<ItemData ItemOID="IT.ADQS.ADT" Value="17570"/>
<ItemData ItemOID="IT.ADQS.ADY" Value="1"/>
<ItemData ItemOID="IT.ADQS.AVISIT" Value="RANDOMIZATION"/>
<ItemData ItemOID="IT.ADQS.AVISITN" Value="1"/>
<ItemData ItemOID="IT.ADQS.PARAM" Value="Adas-Cog(11) Subscore"/>
<ItemData ItemOID="IT.ADQS.PARAMCD" Value="ACTOT"/>
<ItemData ItemOID="IT.ADQS.PARAMN" Value="1"/>
<ItemData ItemOID="IT.ADQS.AVAL" Value="13"/>
<ItemData ItemOID="IT.ADQS.QSSEQ" Value="1"/>
<ItemData ItemOID="IT.ADQS.QSCAT" Value="ALZHEIMER'S DISEASE ASSESSMENT SCALE"/>
<ItemData ItemOID="IT.ADQS.QSSTRESC" Value="13"/>
<ItemData ItemOID="IT.ADQS.AGE" Value="48"/>
<ItemData ItemOID="IT.ADQS.SEX" Value="M"/>
<ItemData ItemOID="IT.ADQS.TRTEDT" Value="17597"/>
<ItemData ItemOID="IT.ADQS.TRTSDT" Value="17569"/>
<ItemData ItemOID="IT.ADQS.SAFFL" Value="Y"/>
</ItemGroupData>
<ItemGroupData ItemGroupOID="IG.ADQS" data:ItemGroupDataSeq="58">
<ItemData ItemOID="IT.ADQS.STUDYID" Value="SASCSTDEMODATA"/>
<ItemData ItemOID="IT.ADQS.USUBJID" Value="S001P001"/>
<ItemData ItemOID="IT.ADQS.TRTP" Value="TRT B"/>
<ItemData ItemOID="IT.ADQS.TRTPN" Value="2"/>
<ItemData ItemOID="IT.ADQS.ADT" Value="17587"/>
<ItemData ItemOID="IT.ADQS.ADY" Value="18"/>
<ItemData ItemOID="IT.ADQS.AVISIT" Value="2 WEEKS"/>
<ItemData ItemOID="IT.ADQS.AVISITN" Value="2"/>
<ItemData ItemOID="IT.ADQS.PARAM" Value="Adas-Cog(11) Subscore"/>
<ItemData ItemOID="IT.ADQS.PARAMCD" Value="ACTOT"/>
<ItemData ItemOID="IT.ADQS.PARAMN" Value="1"/>
<ItemData ItemOID="IT.ADQS.AVAL" Value="8"/>
<ItemData ItemOID="IT.ADQS.QSSEQ" Value="2"/>
<ItemData ItemOID="IT.ADQS.QSCAT" Value="ALZHEIMER'S DISEASE ASSESSMENT SCALE"/>
<ItemData ItemOID="IT.ADQS.QSSTRESC" Value="8"/>
<ItemData ItemOID="IT.ADQS.AGE" Value="48"/>
<ItemData ItemOID="IT.ADQS.SEX" Value="M"/>
<ItemData ItemOID="IT.ADQS.TRTEDT" Value="17597"/>
<ItemData ItemOID="IT.ADQS.TRTSDT" Value="17569"/>
<ItemData ItemOID="IT.ADQS.SAFFL" Value="Y"/>
</ItemGroupData>
<ItemGroupData ItemGroupOID="IG.ADQS" data:ItemGroupDataSeq="59">
<ItemData ItemOID="IT.ADQS.STUDYID" Value="SASCSTDEMODATA"/>
<ItemData ItemOID="IT.ADQS.USUBJID" Value="S001P001"/>
<ItemData ItemOID="IT.ADQS.TRTP" Value="TRT B"/>
<ItemData ItemOID="IT.ADQS.TRTPN" Value="2"/>
<ItemData ItemOID="IT.ADQS.ADT" Value="17605"/>
<ItemData ItemOID="IT.ADQS.ADY" Value="36"/>
<ItemData ItemOID="IT.ADQS.AVISIT" Value="4 WEEKS"/>
<ItemData ItemOID="IT.ADQS.AVISITN" Value="3"/>
<ItemData ItemOID="IT.ADQS.PARAM" Value="Adas-Cog(11) Subscore"/>
<ItemData ItemOID="IT.ADQS.PARAMCD" Value="ACTOT"/>
<ItemData ItemOID="IT.ADQS.PARAMN" Value="1"/>
<ItemData ItemOID="IT.ADQS.AVAL" Value="11"/>
<ItemData ItemOID="IT.ADQS.QSSEQ" Value="3"/>
<ItemData ItemOID="IT.ADQS.QSCAT" Value="ALZHEIMER'S DISEASE ASSESSMENT SCALE"/>
<ItemData ItemOID="IT.ADQS.QSSTRESC" Value="11"/>
<ItemData ItemOID="IT.ADQS.AGE" Value="48"/>
<ItemData ItemOID="IT.ADQS.SEX" Value="M"/>
<ItemData ItemOID="IT.ADQS.TRTEDT" Value="17597"/>
<ItemData ItemOID="IT.ADQS.TRTSDT" Value="17569"/>
<ItemData ItemOID="IT.ADQS.SAFFL" Value="Y"/>
</ItemGroupData>
<ItemGroupData ItemGroupOID="IG.ADQS" data:ItemGroupDataSeq="60">
<ItemData ItemOID="IT.ADQS.STUDYID" Value="SASCSTDEMODATA"/>
<ItemData ItemOID="IT.ADQS.USUBJID" Value="S001P001"/>
<ItemData ItemOID="IT.ADQS.TRTP" Value="TRT B"/>
<ItemData ItemOID="IT.ADQS.TRTPN" Value="2"/>
<ItemData ItemOID="IT.ADQS.ADT" Value="17612"/>
<ItemData ItemOID="IT.ADQS.ADY" Value="43"/>
<ItemData ItemOID="IT.ADQS.AVISIT" Value="6 WEEKS"/>
<ItemData ItemOID="IT.ADQS.AVISITN" Value="4"/>
<ItemData ItemOID="IT.ADQS.PARAM" Value="Adas-Cog(11) Subscore"/>
<ItemData ItemOID="IT.ADQS.PARAMCD" Value="ACTOT"/>
<ItemData ItemOID="IT.ADQS.PARAMN" Value="1"/>
<ItemData ItemOID="IT.ADQS.AVAL" Value="8"/>
<ItemData ItemOID="IT.ADQS.QSSEQ" Value="4"/>
<ItemData ItemOID="IT.ADQS.QSCAT" Value="ALZHEIMER'S DISEASE ASSESSMENT SCALE"/>
<ItemData ItemOID="IT.ADQS.QSSTRESC" Value="8"/>
<ItemData ItemOID="IT.ADQS.AGE" Value="48"/>
<ItemData ItemOID="IT.ADQS.SEX" Value="M"/>
<ItemData ItemOID="IT.ADQS.TRTEDT" Value="17597"/>
<ItemData ItemOID="IT.ADQS.TRTSDT" Value="17569"/>
<ItemData ItemOID="IT.ADQS.SAFFL" Value="Y"/>
</ItemGroupData>
<ItemGroupData ItemGroupOID="IG.ADQS" data:ItemGroupDataSeq="61">
<ItemData ItemOID="IT.ADQS.STUDYID" Value="SASCSTDEMODATA"/>
<ItemData ItemOID="IT.ADQS.USUBJID" Value="S001P001"/>
<ItemData ItemOID="IT.ADQS.TRTP" Value="TRT B"/>
<ItemData ItemOID="IT.ADQS.TRTPN" Value="2"/>
<ItemData ItemOID="IT.ADQS.ADT" Value="17587"/>
<ItemData ItemOID="IT.ADQS.ADY" Value="18"/>
<ItemData ItemOID="IT.ADQS.AVISIT" Value="2 WEEKS"/>
<ItemData ItemOID="IT.ADQS.AVISITN" Value="2"/>
<ItemData ItemOID="IT.ADQS.PARAM" Value="Extent of Change, if Any, Since Baseline"/>
<ItemData ItemOID="IT.ADQS.PARAMCD" Value="CIBIC"/>
<ItemData ItemOID="IT.ADQS.PARAMN" Value="1"/>
<ItemData ItemOID="IT.ADQS.AVAL" Value="4"/>
<ItemData ItemOID="IT.ADQS.QSSEQ" Value="25"/>
<ItemData ItemOID="IT.ADQS.QSCAT" Value="CLINICIAN'S IMPRESSION OF CHANGE(CIBIC+)"/>
<ItemData ItemOID="IT.ADQS.QSORRES" Value="NO CHANGE"/>
<ItemData ItemOID="IT.ADQS.QSSTRESC" Value="4"/>
<ItemData ItemOID="IT.ADQS.AGE" Value="48"/>
<ItemData ItemOID="IT.ADQS.SEX" Value="M"/>
<ItemData ItemOID="IT.ADQS.TRTEDT" Value="17597"/>
<ItemData ItemOID="IT.ADQS.TRTSDT" Value="17569"/>
<ItemData ItemOID="IT.ADQS.SAFFL" Value="Y"/>
</ItemGroupData>
<ItemGroupData ItemGroupOID="IG.ADQS" data:ItemGroupDataSeq="62">
<ItemData ItemOID="IT.ADQS.STUDYID" Value="SASCSTDEMODATA"/>
<ItemData ItemOID="IT.ADQS.USUBJID" Value="S001P001"/>
<ItemData ItemOID="IT.ADQS.TRTP" Value="TRT B"/>
<ItemData ItemOID="IT.ADQS.TRTPN" Value="2"/>
<ItemData ItemOID="IT.ADQS.ADT" Value="17605"/>
<ItemData ItemOID="IT.ADQS.ADY" Value="36"/>
<ItemData ItemOID="IT.ADQS.AVISIT" Value="4 WEEKS"/>
<ItemData ItemOID="IT.ADQS.AVISITN" Value="3"/>
<ItemData ItemOID="IT.ADQS.PARAM" Value="Extent of Change, if Any, Since Baseline"/>
<ItemData ItemOID="IT.ADQS.PARAMCD" Value="CIBIC"/>
<ItemData ItemOID="IT.ADQS.PARAMN" Value="1"/>
<ItemData ItemOID="IT.ADQS.AVAL" Value="4"/>
<ItemData ItemOID="IT.ADQS.QSSEQ" Value="26"/>
<ItemData ItemOID="IT.ADQS.QSCAT" Value="CLINICIAN'S IMPRESSION OF CHANGE(CIBIC+)"/>
<ItemData ItemOID="IT.ADQS.QSORRES" Value="NO CHANGE"/>
<ItemData ItemOID="IT.ADQS.QSSTRESC" Value="4"/>
<ItemData ItemOID="IT.ADQS.AGE" Value="48"/>
<ItemData ItemOID="IT.ADQS.SEX" Value="M"/>
<ItemData ItemOID="IT.ADQS.TRTEDT" Value="17597"/>
<ItemData ItemOID="IT.ADQS.TRTSDT" Value="17569"/>
<ItemData ItemOID="IT.ADQS.SAFFL" Value="Y"/>
</ItemGroupData>
<ItemGroupData ItemGroupOID="IG.ADQS" data:ItemGroupDataSeq="63">
<ItemData ItemOID="IT.ADQS.STUDYID" Value="SASCSTDEMODATA"/>
<ItemData ItemOID="IT.ADQS.USUBJID" Value="S001P001"/>
<ItemData ItemOID="IT.ADQS.TRTP" Value="TRT B"/>
<ItemData ItemOID="IT.ADQS.TRTPN" Value="2"/>
<ItemData ItemOID="IT.ADQS.ADT" Value="17612"/>
<ItemData ItemOID="IT.ADQS.ADY" Value="43"/>
<ItemData ItemOID="IT.ADQS.AVISIT" Value="6 WEEKS"/>
<ItemData ItemOID="IT.ADQS.AVISITN" Value="4"/>
<ItemData ItemOID="IT.ADQS.PARAM" Value="Extent of Change, if Any, Since Baseline"/>
<ItemData ItemOID="IT.ADQS.PARAMCD" Value="CIBIC"/>
<ItemData ItemOID="IT.ADQS.PARAMN" Value="1"/>
<ItemData ItemOID="IT.ADQS.AVAL" Value="4"/>
<ItemData ItemOID="IT.ADQS.QSSEQ" Value="27"/>
<ItemData ItemOID="IT.ADQS.QSCAT" Value="CLINICIAN'S IMPRESSION OF CHANGE(CIBIC+)"/>
<ItemData ItemOID="IT.ADQS.QSORRES" Value="NO CHANGE"/>
<ItemData ItemOID="IT.ADQS.QSSTRESC" Value="4"/>
<ItemData ItemOID="IT.ADQS.AGE" Value="48"/>
<ItemData ItemOID="IT.ADQS.SEX" Value="M"/>
<ItemData ItemOID="IT.ADQS.TRTEDT" Value="17597"/>
<ItemData ItemOID="IT.ADQS.TRTSDT" Value="17569"/>
<ItemData ItemOID="IT.ADQS.SAFFL" Value="Y"/>
</ItemGroupData>
<ItemGroupData ItemGroupOID="IG.ADQS" data:ItemGroupDataSeq="64">
<ItemData ItemOID="IT.ADQS.STUDYID" Value="SASCSTDEMODATA"/>
<ItemData ItemOID="IT.ADQS.USUBJID" Value="S001P002"/>
<ItemData ItemOID="IT.ADQS.TRTP" Value="TRT C"/>
<ItemData ItemOID="IT.ADQS.TRTPN" Value="3"/>
<ItemData ItemOID="IT.ADQS.ADT" Value="17574"/>
<ItemData ItemOID="IT.ADQS.ADY" Value="1"/>
<ItemData ItemOID="IT.ADQS.AVISIT" Value="RANDOMIZATION"/>
<ItemData ItemOID="IT.ADQS.AVISITN" Value="1"/>
<ItemData ItemOID="IT.ADQS.PARAM" Value="Word Recall Task"/>
<ItemData ItemOID="IT.ADQS.PARAMCD" Value="ACITM01"/>
<ItemData ItemOID="IT.ADQS.PARAMN" Value="1"/>
<ItemData ItemOID="IT.ADQS.AVAL" Value="4"/>
<ItemData ItemOID="IT.ADQS.QSSEQ" Value="77"/>
<ItemData ItemOID="IT.ADQS.QSCAT" Value="ALZHEIMER'S DISEASE ASSESSMENT SCALE"/>
<ItemData ItemOID="IT.ADQS.QSORRES" Value="4"/>
<ItemData ItemOID="IT.ADQS.QSSTRESC" Value="4"/>
<ItemData ItemOID="IT.ADQS.AGE" Value="48"/>
<ItemData ItemOID="IT.ADQS.SEX" Value="F"/>
<ItemData ItemOID="IT.ADQS.TRTEDT" Value="17602"/>
<ItemData ItemOID="IT.ADQS.TRTSDT" Value="17573"/>
<ItemData ItemOID="IT.ADQS.SAFFL" Value="Y"/>
</ItemGroupData>
<ItemGroupData ItemGroupOID="IG.ADQS" data:ItemGroupDataSeq="65">
<ItemData ItemOID="IT.ADQS.STUDYID" Value="SASCSTDEMODATA"/>
<ItemData ItemOID="IT.ADQS.USUBJID" Value="S001P002"/>
<ItemData ItemOID="IT.ADQS.TRTP" Value="TRT C"/>
<ItemData ItemOID="IT.ADQS.TRTPN" Value="3"/>
<ItemData ItemOID="IT.ADQS.ADT" Value="17574"/>
<ItemData ItemOID="IT.ADQS.ADY" Value="1"/>
<ItemData ItemOID="IT.ADQS.AVISIT" Value="RANDOMIZATION"/>
<ItemData ItemOID="IT.ADQS.AVISITN" Value="1"/>
<ItemData ItemOID="IT.ADQS.PARAM" Value="Naming Objects and Fingers"/>
<ItemData ItemOID="IT.ADQS.PARAMCD" Value="ACITM02"/>
<ItemData ItemOID="IT.ADQS.PARAMN" Value="2"/>
<ItemData ItemOID="IT.ADQS.AVAL" Value="2"/>
<ItemData ItemOID="IT.ADQS.QSSEQ" Value="72"/>
<ItemData ItemOID="IT.ADQS.QSCAT" Value="ALZHEIMER'S DISEASE ASSESSMENT SCALE"/>
<ItemData ItemOID="IT.ADQS.QSORRES" Value="2"/>
<ItemData ItemOID="IT.ADQS.QSSTRESC" Value="2"/>
<ItemData ItemOID="IT.ADQS.AGE" Value="48"/>
<ItemData ItemOID="IT.ADQS.SEX" Value="F"/>
<ItemData ItemOID="IT.ADQS.TRTEDT" Value="17602"/>
<ItemData ItemOID="IT.ADQS.TRTSDT" Value="17573"/>
<ItemData ItemOID="IT.ADQS.SAFFL" Value="Y"/>
</ItemGroupData>
<ItemGroupData ItemGroupOID="IG.ADQS" data:ItemGroupDataSeq="66">
<ItemData ItemOID="IT.ADQS.STUDYID" Value="SASCSTDEMODATA"/>
<ItemData ItemOID="IT.ADQS.USUBJID" Value="S001P002"/>
<ItemData ItemOID="IT.ADQS.TRTP" Value="TRT C"/>
<ItemData ItemOID="IT.ADQS.TRTPN" Value="3"/>
<ItemData ItemOID="IT.ADQS.ADT" Value="17574"/>
<ItemData ItemOID="IT.ADQS.ADY" Value="1"/>
<ItemData ItemOID="IT.ADQS.AVISIT" Value="RANDOMIZATION"/>
<ItemData ItemOID="IT.ADQS.AVISITN" Value="1"/>
<ItemData ItemOID="IT.ADQS.PARAM" Value="Delayed Word Recall"/>
<ItemData ItemOID="IT.ADQS.PARAMCD" Value="ACITM03"/>
<ItemData ItemOID="IT.ADQS.PARAMN" Value="3"/>
<ItemData ItemOID="IT.ADQS.AVAL" Value="2"/>
<ItemData ItemOID="IT.ADQS.QSSEQ" Value="69"/>
<ItemData ItemOID="IT.ADQS.QSCAT" Value="ALZHEIMER'S DISEASE ASSESSMENT SCALE"/>
<ItemData ItemOID="IT.ADQS.QSORRES" Value="2"/>
<ItemData ItemOID="IT.ADQS.QSSTRESC" Value="2"/>
<ItemData ItemOID="IT.ADQS.AGE" Value="48"/>
<ItemData ItemOID="IT.ADQS.SEX" Value="F"/>
<ItemData ItemOID="IT.ADQS.TRTEDT" Value="17602"/>
<ItemData ItemOID="IT.ADQS.TRTSDT" Value="17573"/>
<ItemData ItemOID="IT.ADQS.SAFFL" Value="Y"/>
</ItemGroupData>
<ItemGroupData ItemGroupOID="IG.ADQS" data:ItemGroupDataSeq="67">
<ItemData ItemOID="IT.ADQS.STUDYID" Value="SASCSTDEMODATA"/>
<ItemData ItemOID="IT.ADQS.USUBJID" Value="S001P002"/>
<ItemData ItemOID="IT.ADQS.TRTP" Value="TRT C"/>
<ItemData ItemOID="IT.ADQS.TRTPN" Value="3"/>
<ItemData ItemOID="IT.ADQS.ADT" Value="17574"/>
<ItemData ItemOID="IT.ADQS.ADY" Value="1"/>
<ItemData ItemOID="IT.ADQS.AVISIT" Value="RANDOMIZATION"/>
<ItemData ItemOID="IT.ADQS.AVISITN" Value="1"/>
<ItemData ItemOID="IT.ADQS.PARAM" Value="Commands"/>
<ItemData ItemOID="IT.ADQS.PARAMCD" Value="ACITM04"/>
<ItemData ItemOID="IT.ADQS.PARAMN" Value="4"/>
<ItemData ItemOID="IT.ADQS.AVAL" Value="0"/>
<ItemData ItemOID="IT.ADQS.QSSEQ" Value="66"/>
<ItemData ItemOID="IT.ADQS.QSCAT" Value="ALZHEIMER'S DISEASE ASSESSMENT SCALE"/>
<ItemData ItemOID="IT.ADQS.QSORRES" Value="0"/>
<ItemData ItemOID="IT.ADQS.QSSTRESC" Value="0"/>
<ItemData ItemOID="IT.ADQS.AGE" Value="48"/>
<ItemData ItemOID="IT.ADQS.SEX" Value="F"/>
<ItemData ItemOID="IT.ADQS.TRTEDT" Value="17602"/>
<ItemData ItemOID="IT.ADQS.TRTSDT" Value="17573"/>
<ItemData ItemOID="IT.ADQS.SAFFL" Value="Y"/>
</ItemGroupData>
<ItemGroupData ItemGroupOID="IG.ADQS" data:ItemGroupDataSeq="68">
<ItemData ItemOID="IT.ADQS.STUDYID" Value="SASCSTDEMODATA"/>
<ItemData ItemOID="IT.ADQS.USUBJID" Value="S001P002"/>
<ItemData ItemOID="IT.ADQS.TRTP" Value="TRT C"/>
<ItemData ItemOID="IT.ADQS.TRTPN" Value="3"/>
<ItemData ItemOID="IT.ADQS.ADT" Value="17574"/>
<ItemData ItemOID="IT.ADQS.ADY" Value="1"/>
<ItemData ItemOID="IT.ADQS.AVISIT" Value="RANDOMIZATION"/>
<ItemData ItemOID="IT.ADQS.AVISITN" Value="1"/>
<ItemData ItemOID="IT.ADQS.PARAM" Value="Constructional Praxis"/>
<ItemData ItemOID="IT.ADQS.PARAMCD" Value="ACITM05"/>
<ItemData ItemOID="IT.ADQS.PARAMN" Value="5"/>
<ItemData ItemOID="IT.ADQS.AVAL" Value="3"/>
<ItemData ItemOID="IT.ADQS.QSSEQ" Value="68"/>
<ItemData ItemOID="IT.ADQS.QSCAT" Value="ALZHEIMER'S DISEASE ASSESSMENT SCALE"/>
<ItemData ItemOID="IT.ADQS.QSORRES" Value="3"/>
<ItemData ItemOID="IT.ADQS.QSSTRESC" Value="3"/>
<ItemData ItemOID="IT.ADQS.AGE" Value="48"/>
<ItemData ItemOID="IT.ADQS.SEX" Value="F"/>
<ItemData ItemOID="IT.ADQS.TRTEDT" Value="17602"/>
<ItemData ItemOID="IT.ADQS.TRTSDT" Value="17573"/>
<ItemData ItemOID="IT.ADQS.SAFFL" Value="Y"/>
</ItemGroupData>
<ItemGroupData ItemGroupOID="IG.ADQS" data:ItemGroupDataSeq="69">
<ItemData ItemOID="IT.ADQS.STUDYID" Value="SASCSTDEMODATA"/>
<ItemData ItemOID="IT.ADQS.USUBJID" Value="S001P002"/>
<ItemData ItemOID="IT.ADQS.TRTP" Value="TRT C"/>
<ItemData ItemOID="IT.ADQS.TRTPN" Value="3"/>
<ItemData ItemOID="IT.ADQS.ADT" Value="17574"/>
<ItemData ItemOID="IT.ADQS.ADY" Value="1"/>
<ItemData ItemOID="IT.ADQS.AVISIT" Value="RANDOMIZATION"/>
<ItemData ItemOID="IT.ADQS.AVISITN" Value="1"/>
<ItemData ItemOID="IT.ADQS.PARAM" Value="Ideational Praxis"/>
<ItemData ItemOID="IT.ADQS.PARAMCD" Value="ACITM06"/>
<ItemData ItemOID="IT.ADQS.PARAMN" Value="6"/>
<ItemData ItemOID="IT.ADQS.AVAL" Value="0"/>
<ItemData ItemOID="IT.ADQS.QSSEQ" Value="70"/>
<ItemData ItemOID="IT.ADQS.QSCAT" Value="ALZHEIMER'S DISEASE ASSESSMENT SCALE"/>
<ItemData ItemOID="IT.ADQS.QSORRES" Value="0"/>
<ItemData ItemOID="IT.ADQS.QSSTRESC" Value="0"/>
<ItemData ItemOID="IT.ADQS.AGE" Value="48"/>
<ItemData ItemOID="IT.ADQS.SEX" Value="F"/>
<ItemData ItemOID="IT.ADQS.TRTEDT" Value="17602"/>
<ItemData ItemOID="IT.ADQS.TRTSDT" Value="17573"/>
<ItemData ItemOID="IT.ADQS.SAFFL" Value="Y"/>
</ItemGroupData>
<ItemGroupData ItemGroupOID="IG.ADQS" data:ItemGroupDataSeq="70">
<ItemData ItemOID="IT.ADQS.STUDYID" Value="SASCSTDEMODATA"/>
<ItemData ItemOID="IT.ADQS.USUBJID" Value="S001P002"/>
<ItemData ItemOID="IT.ADQS.TRTP" Value="TRT C"/>
<ItemData ItemOID="IT.ADQS.TRTPN" Value="3"/>
<ItemData ItemOID="IT.ADQS.ADT" Value="17574"/>
<ItemData ItemOID="IT.ADQS.ADY" Value="1"/>
<ItemData ItemOID="IT.ADQS.AVISIT" Value="RANDOMIZATION"/>
<ItemData ItemOID="IT.ADQS.AVISITN" Value="1"/>
<ItemData ItemOID="IT.ADQS.PARAM" Value="Orientation"/>
<ItemData ItemOID="IT.ADQS.PARAMCD" Value="ACITM07"/>
<ItemData ItemOID="IT.ADQS.PARAMN" Value="7"/>
<ItemData ItemOID="IT.ADQS.AVAL" Value="2"/>
<ItemData ItemOID="IT.ADQS.QSSEQ" Value="73"/>
<ItemData ItemOID="IT.ADQS.QSCAT" Value="ALZHEIMER'S DISEASE ASSESSMENT SCALE"/>
<ItemData ItemOID="IT.ADQS.QSORRES" Value="2"/>
<ItemData ItemOID="IT.ADQS.QSSTRESC" Value="2"/>
<ItemData ItemOID="IT.ADQS.AGE" Value="48"/>
<ItemData ItemOID="IT.ADQS.SEX" Value="F"/>
<ItemData ItemOID="IT.ADQS.TRTEDT" Value="17602"/>
<ItemData ItemOID="IT.ADQS.TRTSDT" Value="17573"/>
<ItemData ItemOID="IT.ADQS.SAFFL" Value="Y"/>
</ItemGroupData>
<ItemGroupData ItemGroupOID="IG.ADQS" data:ItemGroupDataSeq="71">
<ItemData ItemOID="IT.ADQS.STUDYID" Value="SASCSTDEMODATA"/>
<ItemData ItemOID="IT.ADQS.USUBJID" Value="S001P002"/>
<ItemData ItemOID="IT.ADQS.TRTP" Value="TRT C"/>
<ItemData ItemOID="IT.ADQS.TRTPN" Value="3"/>
<ItemData ItemOID="IT.ADQS.ADT" Value="17574"/>
<ItemData ItemOID="IT.ADQS.ADY" Value="1"/>
<ItemData ItemOID="IT.ADQS.AVISIT" Value="RANDOMIZATION"/>
<ItemData ItemOID="IT.ADQS.AVISITN" Value="1"/>
<ItemData ItemOID="IT.ADQS.PARAM" Value="Word Recognition"/>
<ItemData ItemOID="IT.ADQS.PARAMCD" Value="ACITM08"/>
<ItemData ItemOID="IT.ADQS.PARAMN" Value="8"/>
<ItemData ItemOID="IT.ADQS.AVAL" Value="2"/>
<ItemData ItemOID="IT.ADQS.QSSEQ" Value="78"/>
<ItemData ItemOID="IT.ADQS.QSCAT" Value="ALZHEIMER'S DISEASE ASSESSMENT SCALE"/>
<ItemData ItemOID="IT.ADQS.QSORRES" Value="2"/>
<ItemData ItemOID="IT.ADQS.QSSTRESC" Value="2"/>
<ItemData ItemOID="IT.ADQS.AGE" Value="48"/>
<ItemData ItemOID="IT.ADQS.SEX" Value="F"/>
<ItemData ItemOID="IT.ADQS.TRTEDT" Value="17602"/>
<ItemData ItemOID="IT.ADQS.TRTSDT" Value="17573"/>
<ItemData ItemOID="IT.ADQS.SAFFL" Value="Y"/>
</ItemGroupData>
<ItemGroupData ItemGroupOID="IG.ADQS" data:ItemGroupDataSeq="72">
<ItemData ItemOID="IT.ADQS.STUDYID" Value="SASCSTDEMODATA"/>
<ItemData ItemOID="IT.ADQS.USUBJID" Value="S001P002"/>
<ItemData ItemOID="IT.ADQS.TRTP" Value="TRT C"/>
<ItemData ItemOID="IT.ADQS.TRTPN" Value="3"/>
<ItemData ItemOID="IT.ADQS.ADT" Value="17574"/>
<ItemData ItemOID="IT.ADQS.ADY" Value="1"/>
<ItemData ItemOID="IT.ADQS.AVISIT" Value="RANDOMIZATION"/>
<ItemData ItemOID="IT.ADQS.AVISITN" Value="1"/>
<ItemData ItemOID="IT.ADQS.PARAM" Value="Attention/Visual Search Task"/>
<ItemData ItemOID="IT.ADQS.PARAMCD" Value="ACITM09"/>
<ItemData ItemOID="IT.ADQS.PARAMN" Value="9"/>
<ItemData ItemOID="IT.ADQS.AVAL" Value="39"/>
<ItemData ItemOID="IT.ADQS.QSSEQ" Value="65"/>
<ItemData ItemOID="IT.ADQS.QSCAT" Value="ALZHEIMER'S DISEASE ASSESSMENT SCALE"/>
<ItemData ItemOID="IT.ADQS.QSORRES" Value="39"/>
<ItemData ItemOID="IT.ADQS.QSSTRESC" Value="39"/>
<ItemData ItemOID="IT.ADQS.AGE" Value="48"/>
<ItemData ItemOID="IT.ADQS.SEX" Value="F"/>
<ItemData ItemOID="IT.ADQS.TRTEDT" Value="17602"/>
<ItemData ItemOID="IT.ADQS.TRTSDT" Value="17573"/>
<ItemData ItemOID="IT.ADQS.SAFFL" Value="Y"/>
</ItemGroupData>
<ItemGroupData ItemGroupOID="IG.ADQS" data:ItemGroupDataSeq="73">
<ItemData ItemOID="IT.ADQS.STUDYID" Value="SASCSTDEMODATA"/>
<ItemData ItemOID="IT.ADQS.USUBJID" Value="S001P002"/>
<ItemData ItemOID="IT.ADQS.TRTP" Value="TRT C"/>
<ItemData ItemOID="IT.ADQS.TRTPN" Value="3"/>
<ItemData ItemOID="IT.ADQS.ADT" Value="17574"/>
<ItemData ItemOID="IT.ADQS.ADY" Value="1"/>
<ItemData ItemOID="IT.ADQS.AVISIT" Value="RANDOMIZATION"/>
<ItemData ItemOID="IT.ADQS.AVISITN" Value="1"/>
<ItemData ItemOID="IT.ADQS.PARAM" Value="Maze Solution"/>
<ItemData ItemOID="IT.ADQS.PARAMCD" Value="ACITM10"/>
<ItemData ItemOID="IT.ADQS.PARAMN" Value="10"/>
<ItemData ItemOID="IT.ADQS.AVAL" Value="5"/>
<ItemData ItemOID="IT.ADQS.QSSEQ" Value="71"/>
<ItemData ItemOID="IT.ADQS.QSCAT" Value="ALZHEIMER'S DISEASE ASSESSMENT SCALE"/>
<ItemData ItemOID="IT.ADQS.QSORRES" Value="5"/>
<ItemData ItemOID="IT.ADQS.QSORRESU" Value="seconds"/>
<ItemData ItemOID="IT.ADQS.QSSTRESC" Value="5"/>
<ItemData ItemOID="IT.ADQS.QSSTRESU" Value="seconds"/>
<ItemData ItemOID="IT.ADQS.AGE" Value="48"/>
<ItemData ItemOID="IT.ADQS.SEX" Value="F"/>
<ItemData ItemOID="IT.ADQS.TRTEDT" Value="17602"/>
<ItemData ItemOID="IT.ADQS.TRTSDT" Value="17573"/>
<ItemData ItemOID="IT.ADQS.SAFFL" Value="Y"/>
</ItemGroupData>
<ItemGroupData ItemGroupOID="IG.ADQS" data:ItemGroupDataSeq="74">
<ItemData ItemOID="IT.ADQS.STUDYID" Value="SASCSTDEMODATA"/>
<ItemData ItemOID="IT.ADQS.USUBJID" Value="S001P002"/>
<ItemData ItemOID="IT.ADQS.TRTP" Value="TRT C"/>
<ItemData ItemOID="IT.ADQS.TRTPN" Value="3"/>
<ItemData ItemOID="IT.ADQS.ADT" Value="17574"/>
<ItemData ItemOID="IT.ADQS.ADY" Value="1"/>
<ItemData ItemOID="IT.ADQS.AVISIT" Value="RANDOMIZATION"/>
<ItemData ItemOID="IT.ADQS.AVISITN" Value="1"/>
<ItemData ItemOID="IT.ADQS.PARAM" Value="Spoken Language Ability"/>
<ItemData ItemOID="IT.ADQS.PARAMCD" Value="ACITM11"/>
<ItemData ItemOID="IT.ADQS.PARAMN" Value="11"/>
<ItemData ItemOID="IT.ADQS.AVAL" Value="0"/>
<ItemData ItemOID="IT.ADQS.QSSEQ" Value="75"/>
<ItemData ItemOID="IT.ADQS.QSCAT" Value="ALZHEIMER'S DISEASE ASSESSMENT SCALE"/>
<ItemData ItemOID="IT.ADQS.QSORRES" Value="0"/>
<ItemData ItemOID="IT.ADQS.QSSTRESC" Value="0"/>
<ItemData ItemOID="IT.ADQS.AGE" Value="48"/>
<ItemData ItemOID="IT.ADQS.SEX" Value="F"/>
<ItemData ItemOID="IT.ADQS.TRTEDT" Value="17602"/>
<ItemData ItemOID="IT.ADQS.TRTSDT" Value="17573"/>
<ItemData ItemOID="IT.ADQS.SAFFL" Value="Y"/>
</ItemGroupData>
<ItemGroupData ItemGroupOID="IG.ADQS" data:ItemGroupDataSeq="75">
<ItemData ItemOID="IT.ADQS.STUDYID" Value="SASCSTDEMODATA"/>
<ItemData ItemOID="IT.ADQS.USUBJID" Value="S001P002"/>
<ItemData ItemOID="IT.ADQS.TRTP" Value="TRT C"/>
<ItemData ItemOID="IT.ADQS.TRTPN" Value="3"/>
<ItemData ItemOID="IT.ADQS.ADT" Value="17574"/>
<ItemData ItemOID="IT.ADQS.ADY" Value="1"/>
<ItemData ItemOID="IT.ADQS.AVISIT" Value="RANDOMIZATION"/>
<ItemData ItemOID="IT.ADQS.AVISITN" Value="1"/>
<ItemData ItemOID="IT.ADQS.PARAM" Value="Comprehension of Spoken Language"/>
<ItemData ItemOID="IT.ADQS.PARAMCD" Value="ACITM12"/>
<ItemData ItemOID="IT.ADQS.PARAMN" Value="12"/>
<ItemData ItemOID="IT.ADQS.AVAL" Value="0"/>
<ItemData ItemOID="IT.ADQS.QSSEQ" Value="67"/>
<ItemData ItemOID="IT.ADQS.QSCAT" Value="ALZHEIMER'S DISEASE ASSESSMENT SCALE"/>
<ItemData ItemOID="IT.ADQS.QSORRES" Value="0"/>
<ItemData ItemOID="IT.ADQS.QSSTRESC" Value="0"/>
<ItemData ItemOID="IT.ADQS.AGE" Value="48"/>
<ItemData ItemOID="IT.ADQS.SEX" Value="F"/>
<ItemData ItemOID="IT.ADQS.TRTEDT" Value="17602"/>
<ItemData ItemOID="IT.ADQS.TRTSDT" Value="17573"/>
<ItemData ItemOID="IT.ADQS.SAFFL" Value="Y"/>
</ItemGroupData>
<ItemGroupData ItemGroupOID="IG.ADQS" data:ItemGroupDataSeq="76">
<ItemData ItemOID="IT.ADQS.STUDYID" Value="SASCSTDEMODATA"/>
<ItemData ItemOID="IT.ADQS.USUBJID" Value="S001P002"/>
<ItemData ItemOID="IT.ADQS.TRTP" Value="TRT C"/>
<ItemData ItemOID="IT.ADQS.TRTPN" Value="3"/>
<ItemData ItemOID="IT.ADQS.ADT" Value="17574"/>
<ItemData ItemOID="IT.ADQS.ADY" Value="1"/>
<ItemData ItemOID="IT.ADQS.AVISIT" Value="RANDOMIZATION"/>
<ItemData ItemOID="IT.ADQS.AVISITN" Value="1"/>
<ItemData ItemOID="IT.ADQS.PARAM" Value="Word Finding Difficulty in Spontaneous Speech"/>
<ItemData ItemOID="IT.ADQS.PARAMCD" Value="ACITM13"/>
<ItemData ItemOID="IT.ADQS.PARAMN" Value="13"/>
<ItemData ItemOID="IT.ADQS.AVAL" Value="0"/>
<ItemData ItemOID="IT.ADQS.QSSEQ" Value="76"/>
<ItemData ItemOID="IT.ADQS.QSCAT" Value="ALZHEIMER'S DISEASE ASSESSMENT SCALE"/>
<ItemData ItemOID="IT.ADQS.QSORRES" Value="0"/>
<ItemData ItemOID="IT.ADQS.QSSTRESC" Value="0"/>
<ItemData ItemOID="IT.ADQS.AGE" Value="48"/>
<ItemData ItemOID="IT.ADQS.SEX" Value="F"/>
<ItemData ItemOID="IT.ADQS.TRTEDT" Value="17602"/>
<ItemData ItemOID="IT.ADQS.TRTSDT" Value="17573"/>
<ItemData ItemOID="IT.ADQS.SAFFL" Value="Y"/>
</ItemGroupData>
<ItemGroupData ItemGroupOID="IG.ADQS" data:ItemGroupDataSeq="77">
<ItemData ItemOID="IT.ADQS.STUDYID" Value="SASCSTDEMODATA"/>
<ItemData ItemOID="IT.ADQS.USUBJID" Value="S001P002"/>
<ItemData ItemOID="IT.ADQS.TRTP" Value="TRT C"/>
<ItemData ItemOID="IT.ADQS.TRTPN" Value="3"/>
<ItemData ItemOID="IT.ADQS.ADT" Value="17574"/>
<ItemData ItemOID="IT.ADQS.ADY" Value="1"/>
<ItemData ItemOID="IT.ADQS.AVISIT" Value="RANDOMIZATION"/>
<ItemData ItemOID="IT.ADQS.AVISITN" Value="1"/>
<ItemData ItemOID="IT.ADQS.PARAM" Value="Recall of Test Instructions"/>
<ItemData ItemOID="IT.ADQS.PARAMCD" Value="ACITM14"/>
<ItemData ItemOID="IT.ADQS.PARAMN" Value="14"/>
<ItemData ItemOID="IT.ADQS.AVAL" Value="0"/>
<ItemData ItemOID="IT.ADQS.QSSEQ" Value="74"/>
<ItemData ItemOID="IT.ADQS.QSCAT" Value="ALZHEIMER'S DISEASE ASSESSMENT SCALE"/>
<ItemData ItemOID="IT.ADQS.QSORRES" Value="0"/>
<ItemData ItemOID="IT.ADQS.QSSTRESC" Value="0"/>
<ItemData ItemOID="IT.ADQS.AGE" Value="48"/>
<ItemData ItemOID="IT.ADQS.SEX" Value="F"/>
<ItemData ItemOID="IT.ADQS.TRTEDT" Value="17602"/>
<ItemData ItemOID="IT.ADQS.TRTSDT" Value="17573"/>
<ItemData ItemOID="IT.ADQS.SAFFL" Value="Y"/>
</ItemGroupData>
<ItemGroupData ItemGroupOID="IG.ADQS" data:ItemGroupDataSeq="78">
<ItemData ItemOID="IT.ADQS.STUDYID" Value="SASCSTDEMODATA"/>
<ItemData ItemOID="IT.ADQS.USUBJID" Value="S001P002"/>
<ItemData ItemOID="IT.ADQS.TRTP" Value="TRT C"/>
<ItemData ItemOID="IT.ADQS.TRTPN" Value="3"/>
<ItemData ItemOID="IT.ADQS.ADT" Value="17574"/>
<ItemData ItemOID="IT.ADQS.ADY" Value="1"/>
<ItemData ItemOID="IT.ADQS.AVISIT" Value="RANDOMIZATION"/>
<ItemData ItemOID="IT.ADQS.AVISITN" Value="1"/>
<ItemData ItemOID="IT.ADQS.PARAM" Value="Adas-Cog(11) Subscore"/>
<ItemData ItemOID="IT.ADQS.PARAMCD" Value="ACTOT"/>
<ItemData ItemOID="IT.ADQS.PARAMN" Value="1"/>
<ItemData ItemOID="IT.ADQS.AVAL" Value="13"/>
<ItemData ItemOID="IT.ADQS.QSSEQ" Value="64"/>
<ItemData ItemOID="IT.ADQS.QSCAT" Value="ALZHEIMER'S DISEASE ASSESSMENT SCALE"/>
<ItemData ItemOID="IT.ADQS.QSSTRESC" Value="13"/>
<ItemData ItemOID="IT.ADQS.AGE" Value="48"/>
<ItemData ItemOID="IT.ADQS.SEX" Value="F"/>
<ItemData ItemOID="IT.ADQS.TRTEDT" Value="17602"/>
<ItemData ItemOID="IT.ADQS.TRTSDT" Value="17573"/>
<ItemData ItemOID="IT.ADQS.SAFFL" Value="Y"/>
</ItemGroupData>
<ItemGroupData ItemGroupOID="IG.ADQS" data:ItemGroupDataSeq="79">
<ItemData ItemOID="IT.ADQS.STUDYID" Value="SASCSTDEMODATA"/>
<ItemData ItemOID="IT.ADQS.USUBJID" Value="S001P003"/>
<ItemData ItemOID="IT.ADQS.TRTP" Value="TRT A"/>
<ItemData ItemOID="IT.ADQS.TRTPN" Value="1"/>
<ItemData ItemOID="IT.ADQS.ADT" Value="17577"/>
<ItemData ItemOID="IT.ADQS.ADY" Value="1"/>
<ItemData ItemOID="IT.ADQS.AVISIT" Value="RANDOMIZATION"/>
<ItemData ItemOID="IT.ADQS.AVISITN" Value="1"/>
<ItemData ItemOID="IT.ADQS.PARAM" Value="Word Recall Task"/>
<ItemData ItemOID="IT.ADQS.PARAMCD" Value="ACITM01"/>
<ItemData ItemOID="IT.ADQS.PARAMN" Value="1"/>
<ItemData ItemOID="IT.ADQS.AVAL" Value="1"/>
<ItemData ItemOID="IT.ADQS.QSSEQ" Value="134"/>
<ItemData ItemOID="IT.ADQS.QSCAT" Value="ALZHEIMER'S DISEASE ASSESSMENT SCALE"/>
<ItemData ItemOID="IT.ADQS.QSORRES" Value="1"/>
<ItemData ItemOID="IT.ADQS.QSSTRESC" Value="1"/>
<ItemData ItemOID="IT.ADQS.AGE" Value="38"/>
<ItemData ItemOID="IT.ADQS.SEX" Value="F"/>
<ItemData ItemOID="IT.ADQS.TRTEDT" Value="17617"/>
<ItemData ItemOID="IT.ADQS.TRTSDT" Value="17576"/>
<ItemData ItemOID="IT.ADQS.SAFFL" Value="Y"/>
</ItemGroupData>
<ItemGroupData ItemGroupOID="IG.ADQS" data:ItemGroupDataSeq="80">
<ItemData ItemOID="IT.ADQS.STUDYID" Value="SASCSTDEMODATA"/>
<ItemData ItemOID="IT.ADQS.USUBJID" Value="S001P003"/>
<ItemData ItemOID="IT.ADQS.TRTP" Value="TRT A"/>
<ItemData ItemOID="IT.ADQS.TRTPN" Value="1"/>
<ItemData ItemOID="IT.ADQS.ADT" Value="17589"/>
<ItemData ItemOID="IT.ADQS.ADY" Value="13"/>
<ItemData ItemOID="IT.ADQS.AVISIT" Value="2 WEEKS"/>
<ItemData ItemOID="IT.ADQS.AVISITN" Value="2"/>
<ItemData ItemOID="IT.ADQS.PARAM" Value="Word Recall Task"/>
<ItemData ItemOID="IT.ADQS.PARAMCD" Value="ACITM01"/>
<ItemData ItemOID="IT.ADQS.PARAMN" Value="1"/>
<ItemData ItemOID="IT.ADQS.AVAL" Value="1"/>
<ItemData ItemOID="IT.ADQS.QSSEQ" Value="135"/>
<ItemData ItemOID="IT.ADQS.QSCAT" Value="ALZHEIMER'S DISEASE ASSESSMENT SCALE"/>
<ItemData ItemOID="IT.ADQS.QSORRES" Value="1"/>
<ItemData ItemOID="IT.ADQS.QSSTRESC" Value="1"/>
<ItemData ItemOID="IT.ADQS.AGE" Value="38"/>
<ItemData ItemOID="IT.ADQS.SEX" Value="F"/>
<ItemData ItemOID="IT.ADQS.TRTEDT" Value="17617"/>
<ItemData ItemOID="IT.ADQS.TRTSDT" Value="17576"/>
<ItemData ItemOID="IT.ADQS.SAFFL" Value="Y"/>
</ItemGroupData>
<ItemGroupData ItemGroupOID="IG.ADQS" data:ItemGroupDataSeq="81">
<ItemData ItemOID="IT.ADQS.STUDYID" Value="SASCSTDEMODATA"/>
<ItemData ItemOID="IT.ADQS.USUBJID" Value="S001P003"/>
<ItemData ItemOID="IT.ADQS.TRTP" Value="TRT A"/>
<ItemData ItemOID="IT.ADQS.TRTPN" Value="1"/>
<ItemData ItemOID="IT.ADQS.ADT" Value="17604"/>
<ItemData ItemOID="IT.ADQS.ADY" Value="28"/>
<ItemData ItemOID="IT.ADQS.AVISIT" Value="4 WEEKS"/>
<ItemData ItemOID="IT.ADQS.AVISITN" Value="3"/>
<ItemData ItemOID="IT.ADQS.PARAM" Value="Word Recall Task"/>
<ItemData ItemOID="IT.ADQS.PARAMCD" Value="ACITM01"/>
<ItemData ItemOID="IT.ADQS.PARAMN" Value="1"/>
<ItemData ItemOID="IT.ADQS.AVAL" Value="3"/>
<ItemData ItemOID="IT.ADQS.QSSEQ" Value="136"/>
<ItemData ItemOID="IT.ADQS.QSCAT" Value="ALZHEIMER'S DISEASE ASSESSMENT SCALE"/>
<ItemData ItemOID="IT.ADQS.QSORRES" Value="3"/>
<ItemData ItemOID="IT.ADQS.QSSTRESC" Value="3"/>
<ItemData ItemOID="IT.ADQS.AGE" Value="38"/>
<ItemData ItemOID="IT.ADQS.SEX" Value="F"/>
<ItemData ItemOID="IT.ADQS.TRTEDT" Value="17617"/>
<ItemData ItemOID="IT.ADQS.TRTSDT" Value="17576"/>
<ItemData ItemOID="IT.ADQS.SAFFL" Value="Y"/>
</ItemGroupData>
<ItemGroupData ItemGroupOID="IG.ADQS" data:ItemGroupDataSeq="82">
<ItemData ItemOID="IT.ADQS.STUDYID" Value="SASCSTDEMODATA"/>
<ItemData ItemOID="IT.ADQS.USUBJID" Value="S001P003"/>
<ItemData ItemOID="IT.ADQS.TRTP" Value="TRT A"/>
<ItemData ItemOID="IT.ADQS.TRTPN" Value="1"/>
<ItemData ItemOID="IT.ADQS.ADT" Value="17623"/>
<ItemData ItemOID="IT.ADQS.ADY" Value="47"/>
<ItemData ItemOID="IT.ADQS.AVISIT" Value="6 WEEKS"/>
<ItemData ItemOID="IT.ADQS.AVISITN" Value="4"/>
<ItemData ItemOID="IT.ADQS.PARAM" Value="Word Recall Task"/>
<ItemData ItemOID="IT.ADQS.PARAMCD" Value="ACITM01"/>
<ItemData ItemOID="IT.ADQS.PARAMN" Value="1"/>
<ItemData ItemOID="IT.ADQS.AVAL" Value="2"/>
<ItemData ItemOID="IT.ADQS.QSSEQ" Value="137"/>
<ItemData ItemOID="IT.ADQS.QSCAT" Value="ALZHEIMER'S DISEASE ASSESSMENT SCALE"/>
<ItemData ItemOID="IT.ADQS.QSORRES" Value="2"/>
<ItemData ItemOID="IT.ADQS.QSSTRESC" Value="2"/>
<ItemData ItemOID="IT.ADQS.AGE" Value="38"/>
<ItemData ItemOID="IT.ADQS.SEX" Value="F"/>
<ItemData ItemOID="IT.ADQS.TRTEDT" Value="17617"/>
<ItemData ItemOID="IT.ADQS.TRTSDT" Value="17576"/>
<ItemData ItemOID="IT.ADQS.SAFFL" Value="Y"/>
</ItemGroupData>
<ItemGroupData ItemGroupOID="IG.ADQS" data:ItemGroupDataSeq="83">
<ItemData ItemOID="IT.ADQS.STUDYID" Value="SASCSTDEMODATA"/>
<ItemData ItemOID="IT.ADQS.USUBJID" Value="S001P003"/>
<ItemData ItemOID="IT.ADQS.TRTP" Value="TRT A"/>
<ItemData ItemOID="IT.ADQS.TRTPN" Value="1"/>
<ItemData ItemOID="IT.ADQS.ADT" Value="17577"/>
<ItemData ItemOID="IT.ADQS.ADY" Value="1"/>
<ItemData ItemOID="IT.ADQS.AVISIT" Value="RANDOMIZATION"/>
<ItemData ItemOID="IT.ADQS.AVISITN" Value="1"/>
<ItemData ItemOID="IT.ADQS.PARAM" Value="Naming Objects and Fingers"/>
<ItemData ItemOID="IT.ADQS.PARAMCD" Value="ACITM02"/>
<ItemData ItemOID="IT.ADQS.PARAMN" Value="2"/>
<ItemData ItemOID="IT.ADQS.AVAL" Value="0"/>
<ItemData ItemOID="IT.ADQS.QSSEQ" Value="114"/>
<ItemData ItemOID="IT.ADQS.QSCAT" Value="ALZHEIMER'S DISEASE ASSESSMENT SCALE"/>
<ItemData ItemOID="IT.ADQS.QSORRES" Value="0"/>
<ItemData ItemOID="IT.ADQS.QSSTRESC" Value="0"/>
<ItemData ItemOID="IT.ADQS.AGE" Value="38"/>
<ItemData ItemOID="IT.ADQS.SEX" Value="F"/>
<ItemData ItemOID="IT.ADQS.TRTEDT" Value="17617"/>
<ItemData ItemOID="IT.ADQS.TRTSDT" Value="17576"/>
<ItemData ItemOID="IT.ADQS.SAFFL" Value="Y"/>
</ItemGroupData>
<ItemGroupData ItemGroupOID="IG.ADQS" data:ItemGroupDataSeq="84">
<ItemData ItemOID="IT.ADQS.STUDYID" Value="SASCSTDEMODATA"/>
<ItemData ItemOID="IT.ADQS.USUBJID" Value="S001P003"/>
<ItemData ItemOID="IT.ADQS.TRTP" Value="TRT A"/>
<ItemData ItemOID="IT.ADQS.TRTPN" Value="1"/>
<ItemData ItemOID="IT.ADQS.ADT" Value="17589"/>
<ItemData ItemOID="IT.ADQS.ADY" Value="13"/>
<ItemData ItemOID="IT.ADQS.AVISIT" Value="2 WEEKS"/>
<ItemData ItemOID="IT.ADQS.AVISITN" Value="2"/>
<ItemData ItemOID="IT.ADQS.PARAM" Value="Naming Objects and Fingers"/>
<ItemData ItemOID="IT.ADQS.PARAMCD" Value="ACITM02"/>
<ItemData ItemOID="IT.ADQS.PARAMN" Value="2"/>
<ItemData ItemOID="IT.ADQS.AVAL" Value="0"/>
<ItemData ItemOID="IT.ADQS.QSSEQ" Value="115"/>
<ItemData ItemOID="IT.ADQS.QSCAT" Value="ALZHEIMER'S DISEASE ASSESSMENT SCALE"/>
<ItemData ItemOID="IT.ADQS.QSORRES" Value="0"/>
<ItemData ItemOID="IT.ADQS.QSSTRESC" Value="0"/>
<ItemData ItemOID="IT.ADQS.AGE" Value="38"/>
<ItemData ItemOID="IT.ADQS.SEX" Value="F"/>
<ItemData ItemOID="IT.ADQS.TRTEDT" Value="17617"/>
<ItemData ItemOID="IT.ADQS.TRTSDT" Value="17576"/>
<ItemData ItemOID="IT.ADQS.SAFFL" Value="Y"/>
</ItemGroupData>
<ItemGroupData ItemGroupOID="IG.ADQS" data:ItemGroupDataSeq="85">
<ItemData ItemOID="IT.ADQS.STUDYID" Value="SASCSTDEMODATA"/>
<ItemData ItemOID="IT.ADQS.USUBJID" Value="S001P003"/>
<ItemData ItemOID="IT.ADQS.TRTP" Value="TRT A"/>
<ItemData ItemOID="IT.ADQS.TRTPN" Value="1"/>
<ItemData ItemOID="IT.ADQS.ADT" Value="17604"/>
<ItemData ItemOID="IT.ADQS.ADY" Value="28"/>
<ItemData ItemOID="IT.ADQS.AVISIT" Value="4 WEEKS"/>
<ItemData ItemOID="IT.ADQS.AVISITN" Value="3"/>
<ItemData ItemOID="IT.ADQS.PARAM" Value="Naming Objects and Fingers"/>
<ItemData ItemOID="IT.ADQS.PARAMCD" Value="ACITM02"/>
<ItemData ItemOID="IT.ADQS.PARAMN" Value="2"/>
<ItemData ItemOID="IT.ADQS.AVAL" Value="0"/>
<ItemData ItemOID="IT.ADQS.QSSEQ" Value="116"/>
<ItemData ItemOID="IT.ADQS.QSCAT" Value="ALZHEIMER'S DISEASE ASSESSMENT SCALE"/>
<ItemData ItemOID="IT.ADQS.QSORRES" Value="0"/>
<ItemData ItemOID="IT.ADQS.QSSTRESC" Value="0"/>
<ItemData ItemOID="IT.ADQS.AGE" Value="38"/>
<ItemData ItemOID="IT.ADQS.SEX" Value="F"/>
<ItemData ItemOID="IT.ADQS.TRTEDT" Value="17617"/>
<ItemData ItemOID="IT.ADQS.TRTSDT" Value="17576"/>
<ItemData ItemOID="IT.ADQS.SAFFL" Value="Y"/>
</ItemGroupData>
<ItemGroupData ItemGroupOID="IG.ADQS" data:ItemGroupDataSeq="86">
<ItemData ItemOID="IT.ADQS.STUDYID" Value="SASCSTDEMODATA"/>
<ItemData ItemOID="IT.ADQS.USUBJID" Value="S001P003"/>
<ItemData ItemOID="IT.ADQS.TRTP" Value="TRT A"/>
<ItemData ItemOID="IT.ADQS.TRTPN" Value="1"/>
<ItemData ItemOID="IT.ADQS.ADT" Value="17623"/>
<ItemData ItemOID="IT.ADQS.ADY" Value="47"/>
<ItemData ItemOID="IT.ADQS.AVISIT" Value="6 WEEKS"/>
<ItemData ItemOID="IT.ADQS.AVISITN" Value="4"/>
<ItemData ItemOID="IT.ADQS.PARAM" Value="Naming Objects and Fingers"/>
<ItemData ItemOID="IT.ADQS.PARAMCD" Value="ACITM02"/>
<ItemData ItemOID="IT.ADQS.PARAMN" Value="2"/>
<ItemData ItemOID="IT.ADQS.AVAL" Value="0"/>
<ItemData ItemOID="IT.ADQS.QSSEQ" Value="117"/>
<ItemData ItemOID="IT.ADQS.QSCAT" Value="ALZHEIMER'S DISEASE ASSESSMENT SCALE"/>
<ItemData ItemOID="IT.ADQS.QSORRES" Value="0"/>
<ItemData ItemOID="IT.ADQS.QSSTRESC" Value="0"/>
<ItemData ItemOID="IT.ADQS.AGE" Value="38"/>
<ItemData ItemOID="IT.ADQS.SEX" Value="F"/>
<ItemData ItemOID="IT.ADQS.TRTEDT" Value="17617"/>
<ItemData ItemOID="IT.ADQS.TRTSDT" Value="17576"/>
<ItemData ItemOID="IT.ADQS.SAFFL" Value="Y"/>
</ItemGroupData>
<ItemGroupData ItemGroupOID="IG.ADQS" data:ItemGroupDataSeq="87">
<ItemData ItemOID="IT.ADQS.STUDYID" Value="SASCSTDEMODATA"/>
<ItemData ItemOID="IT.ADQS.USUBJID" Value="S001P003"/>
<ItemData ItemOID="IT.ADQS.TRTP" Value="TRT A"/>
<ItemData ItemOID="IT.ADQS.TRTPN" Value="1"/>
<ItemData ItemOID="IT.ADQS.ADT" Value="17577"/>
<ItemData ItemOID="IT.ADQS.ADY" Value="1"/>
<ItemData ItemOID="IT.ADQS.AVISIT" Value="RANDOMIZATION"/>
<ItemData ItemOID="IT.ADQS.AVISITN" Value="1"/>
<ItemData ItemOID="IT.ADQS.PARAM" Value="Delayed Word Recall"/>
<ItemData ItemOID="IT.ADQS.PARAMCD" Value="ACITM03"/>
<ItemData ItemOID="IT.ADQS.PARAMN" Value="3"/>
<ItemData ItemOID="IT.ADQS.AVAL" Value="1"/>
<ItemData ItemOID="IT.ADQS.QSSEQ" Value="99"/>
<ItemData ItemOID="IT.ADQS.QSCAT" Value="ALZHEIMER'S DISEASE ASSESSMENT SCALE"/>
<ItemData ItemOID="IT.ADQS.QSORRES" Value="1"/>
<ItemData ItemOID="IT.ADQS.QSSTRESC" Value="1"/>
<ItemData ItemOID="IT.ADQS.AGE" Value="38"/>
<ItemData ItemOID="IT.ADQS.SEX" Value="F"/>
<ItemData ItemOID="IT.ADQS.TRTEDT" Value="17617"/>
<ItemData ItemOID="IT.ADQS.TRTSDT" Value="17576"/>
<ItemData ItemOID="IT.ADQS.SAFFL" Value="Y"/>
</ItemGroupData>
<ItemGroupData ItemGroupOID="IG.ADQS" data:ItemGroupDataSeq="88">
<ItemData ItemOID="IT.ADQS.STUDYID" Value="SASCSTDEMODATA"/>
<ItemData ItemOID="IT.ADQS.USUBJID" Value="S001P003"/>
<ItemData ItemOID="IT.ADQS.TRTP" Value="TRT A"/>
<ItemData ItemOID="IT.ADQS.TRTPN" Value="1"/>
<ItemData ItemOID="IT.ADQS.ADT" Value="17589"/>
<ItemData ItemOID="IT.ADQS.ADY" Value="13"/>
<ItemData ItemOID="IT.ADQS.AVISIT" Value="2 WEEKS"/>
<ItemData ItemOID="IT.ADQS.AVISITN" Value="2"/>
<ItemData ItemOID="IT.ADQS.PARAM" Value="Delayed Word Recall"/>
<ItemData ItemOID="IT.ADQS.PARAMCD" Value="ACITM03"/>
<ItemData ItemOID="IT.ADQS.PARAMN" Value="3"/>
<ItemData ItemOID="IT.ADQS.AVAL" Value="0"/>
<ItemData ItemOID="IT.ADQS.QSSEQ" Value="100"/>
<ItemData ItemOID="IT.ADQS.QSCAT" Value="ALZHEIMER'S DISEASE ASSESSMENT SCALE"/>
<ItemData ItemOID="IT.ADQS.QSORRES" Value="0"/>
<ItemData ItemOID="IT.ADQS.QSSTRESC" Value="0"/>
<ItemData ItemOID="IT.ADQS.AGE" Value="38"/>
<ItemData ItemOID="IT.ADQS.SEX" Value="F"/>
<ItemData ItemOID="IT.ADQS.TRTEDT" Value="17617"/>
<ItemData ItemOID="IT.ADQS.TRTSDT" Value="17576"/>
<ItemData ItemOID="IT.ADQS.SAFFL" Value="Y"/>
</ItemGroupData>
<ItemGroupData ItemGroupOID="IG.ADQS" data:ItemGroupDataSeq="89">
<ItemData ItemOID="IT.ADQS.STUDYID" Value="SASCSTDEMODATA"/>
<ItemData ItemOID="IT.ADQS.USUBJID" Value="S001P003"/>
<ItemData ItemOID="IT.ADQS.TRTP" Value="TRT A"/>
<ItemData ItemOID="IT.ADQS.TRTPN" Value="1"/>
<ItemData ItemOID="IT.ADQS.ADT" Value="17604"/>
<ItemData ItemOID="IT.ADQS.ADY" Value="28"/>
<ItemData ItemOID="IT.ADQS.AVISIT" Value="4 WEEKS"/>
<ItemData ItemOID="IT.ADQS.AVISITN" Value="3"/>
<ItemData ItemOID="IT.ADQS.PARAM" Value="Delayed Word Recall"/>
<ItemData ItemOID="IT.ADQS.PARAMCD" Value="ACITM03"/>
<ItemData ItemOID="IT.ADQS.PARAMN" Value="3"/>
<ItemData ItemOID="IT.ADQS.AVAL" Value="4"/>
<ItemData ItemOID="IT.ADQS.QSSEQ" Value="101"/>
<ItemData ItemOID="IT.ADQS.QSCAT" Value="ALZHEIMER'S DISEASE ASSESSMENT SCALE"/>
<ItemData ItemOID="IT.ADQS.QSORRES" Value="4"/>
<ItemData ItemOID="IT.ADQS.QSSTRESC" Value="4"/>
<ItemData ItemOID="IT.ADQS.AGE" Value="38"/>
<ItemData ItemOID="IT.ADQS.SEX" Value="F"/>
<ItemData ItemOID="IT.ADQS.TRTEDT" Value="17617"/>
<ItemData ItemOID="IT.ADQS.TRTSDT" Value="17576"/>
<ItemData ItemOID="IT.ADQS.SAFFL" Value="Y"/>
</ItemGroupData>
<ItemGroupData ItemGroupOID="IG.ADQS" data:ItemGroupDataSeq="90">
<ItemData ItemOID="IT.ADQS.STUDYID" Value="SASCSTDEMODATA"/>
<ItemData ItemOID="IT.ADQS.USUBJID" Value="S001P003"/>
<ItemData ItemOID="IT.ADQS.TRTP" Value="TRT A"/>
<ItemData ItemOID="IT.ADQS.TRTPN" Value="1"/>
<ItemData ItemOID="IT.ADQS.ADT" Value="17623"/>
<ItemData ItemOID="IT.ADQS.ADY" Value="47"/>
<ItemData ItemOID="IT.ADQS.AVISIT" Value="6 WEEKS"/>
<ItemData ItemOID="IT.ADQS.AVISITN" Value="4"/>
<ItemData ItemOID="IT.ADQS.PARAM" Value="Delayed Word Recall"/>
<ItemData ItemOID="IT.ADQS.PARAMCD" Value="ACITM03"/>
<ItemData ItemOID="IT.ADQS.PARAMN" Value="3"/>
<ItemData ItemOID="IT.ADQS.AVAL" Value="1"/>
<ItemData ItemOID="IT.ADQS.QSSEQ" Value="102"/>
<ItemData ItemOID="IT.ADQS.QSCAT" Value="ALZHEIMER'S DISEASE ASSESSMENT SCALE"/>
<ItemData ItemOID="IT.ADQS.QSORRES" Value="1"/>
<ItemData ItemOID="IT.ADQS.QSSTRESC" Value="1"/>
<ItemData ItemOID="IT.ADQS.AGE" Value="38"/>
<ItemData ItemOID="IT.ADQS.SEX" Value="F"/>
<ItemData ItemOID="IT.ADQS.TRTEDT" Value="17617"/>
<ItemData ItemOID="IT.ADQS.TRTSDT" Value="17576"/>
<ItemData ItemOID="IT.ADQS.SAFFL" Value="Y"/>
</ItemGroupData>
<ItemGroupData ItemGroupOID="IG.ADQS" data:ItemGroupDataSeq="91">
<ItemData ItemOID="IT.ADQS.STUDYID" Value="SASCSTDEMODATA"/>
<ItemData ItemOID="IT.ADQS.USUBJID" Value="S001P003"/>
<ItemData ItemOID="IT.ADQS.TRTP" Value="TRT A"/>
<ItemData ItemOID="IT.ADQS.TRTPN" Value="1"/>
<ItemData ItemOID="IT.ADQS.ADT" Value="17577"/>
<ItemData ItemOID="IT.ADQS.ADY" Value="1"/>
<ItemData ItemOID="IT.ADQS.AVISIT" Value="RANDOMIZATION"/>
<ItemData ItemOID="IT.ADQS.AVISITN" Value="1"/>
<ItemData ItemOID="IT.ADQS.PARAM" Value="Commands"/>
<ItemData ItemOID="IT.ADQS.PARAMCD" Value="ACITM04"/>
<ItemData ItemOID="IT.ADQS.PARAMN" Value="4"/>
<ItemData ItemOID="IT.ADQS.AVAL" Value="0"/>
<ItemData ItemOID="IT.ADQS.QSSEQ" Value="87"/>
<ItemData ItemOID="IT.ADQS.QSCAT" Value="ALZHEIMER'S DISEASE ASSESSMENT SCALE"/>
<ItemData ItemOID="IT.ADQS.QSORRES" Value="0"/>
<ItemData ItemOID="IT.ADQS.QSSTRESC" Value="0"/>
<ItemData ItemOID="IT.ADQS.AGE" Value="38"/>
<ItemData ItemOID="IT.ADQS.SEX" Value="F"/>
<ItemData ItemOID="IT.ADQS.TRTEDT" Value="17617"/>
<ItemData ItemOID="IT.ADQS.TRTSDT" Value="17576"/>
<ItemData ItemOID="IT.ADQS.SAFFL" Value="Y"/>
</ItemGroupData>
<ItemGroupData ItemGroupOID="IG.ADQS" data:ItemGroupDataSeq="92">
<ItemData ItemOID="IT.ADQS.STUDYID" Value="SASCSTDEMODATA"/>
<ItemData ItemOID="IT.ADQS.USUBJID" Value="S001P003"/>
<ItemData ItemOID="IT.ADQS.TRTP" Value="TRT A"/>
<ItemData ItemOID="IT.ADQS.TRTPN" Value="1"/>
<ItemData ItemOID="IT.ADQS.ADT" Value="17589"/>
<ItemData ItemOID="IT.ADQS.ADY" Value="13"/>
<ItemData ItemOID="IT.ADQS.AVISIT" Value="2 WEEKS"/>
<ItemData ItemOID="IT.ADQS.AVISITN" Value="2"/>
<ItemData ItemOID="IT.ADQS.PARAM" Value="Commands"/>
<ItemData ItemOID="IT.ADQS.PARAMCD" Value="ACITM04"/>
<ItemData ItemOID="IT.ADQS.PARAMN" Value="4"/>
<ItemData ItemOID="IT.ADQS.AVAL" Value="0"/>
<ItemData ItemOID="IT.ADQS.QSSEQ" Value="88"/>
<ItemData ItemOID="IT.ADQS.QSCAT" Value="ALZHEIMER'S DISEASE ASSESSMENT SCALE"/>
<ItemData ItemOID="IT.ADQS.QSORRES" Value="0"/>
<ItemData ItemOID="IT.ADQS.QSSTRESC" Value="0"/>
<ItemData ItemOID="IT.ADQS.AGE" Value="38"/>
<ItemData ItemOID="IT.ADQS.SEX" Value="F"/>
<ItemData ItemOID="IT.ADQS.TRTEDT" Value="17617"/>
<ItemData ItemOID="IT.ADQS.TRTSDT" Value="17576"/>
<ItemData ItemOID="IT.ADQS.SAFFL" Value="Y"/>
</ItemGroupData>
<ItemGroupData ItemGroupOID="IG.ADQS" data:ItemGroupDataSeq="93">
<ItemData ItemOID="IT.ADQS.STUDYID" Value="SASCSTDEMODATA"/>
<ItemData ItemOID="IT.ADQS.USUBJID" Value="S001P003"/>
<ItemData ItemOID="IT.ADQS.TRTP" Value="TRT A"/>
<ItemData ItemOID="IT.ADQS.TRTPN" Value="1"/>
<ItemData ItemOID="IT.ADQS.ADT" Value="17604"/>
<ItemData ItemOID="IT.ADQS.ADY" Value="28"/>
<ItemData ItemOID="IT.ADQS.AVISIT" Value="4 WEEKS"/>
<ItemData ItemOID="IT.ADQS.AVISITN" Value="3"/>
<ItemData ItemOID="IT.ADQS.PARAM" Value="Commands"/>
<ItemData ItemOID="IT.ADQS.PARAMCD" Value="ACITM04"/>
<ItemData ItemOID="IT.ADQS.PARAMN" Value="4"/>
<ItemData ItemOID="IT.ADQS.AVAL" Value="0"/>
<ItemData ItemOID="IT.ADQS.QSSEQ" Value="89"/>
<ItemData ItemOID="IT.ADQS.QSCAT" Value="ALZHEIMER'S DISEASE ASSESSMENT SCALE"/>
<ItemData ItemOID="IT.ADQS.QSORRES" Value="0"/>
<ItemData ItemOID="IT.ADQS.QSSTRESC" Value="0"/>
<ItemData ItemOID="IT.ADQS.AGE" Value="38"/>
<ItemData ItemOID="IT.ADQS.SEX" Value="F"/>
<ItemData ItemOID="IT.ADQS.TRTEDT" Value="17617"/>
<ItemData ItemOID="IT.ADQS.TRTSDT" Value="17576"/>
<ItemData ItemOID="IT.ADQS.SAFFL" Value="Y"/>
</ItemGroupData>
<ItemGroupData ItemGroupOID="IG.ADQS" data:ItemGroupDataSeq="94">
<ItemData ItemOID="IT.ADQS.STUDYID" Value="SASCSTDEMODATA"/>
<ItemData ItemOID="IT.ADQS.USUBJID" Value="S001P003"/>
<ItemData ItemOID="IT.ADQS.TRTP" Value="TRT A"/>
<ItemData ItemOID="IT.ADQS.TRTPN" Value="1"/>
<ItemData ItemOID="IT.ADQS.ADT" Value="17623"/>
<ItemData ItemOID="IT.ADQS.ADY" Value="47"/>
<ItemData ItemOID="IT.ADQS.AVISIT" Value="6 WEEKS"/>
<ItemData ItemOID="IT.ADQS.AVISITN" Value="4"/>
<ItemData ItemOID="IT.ADQS.PARAM" Value="Commands"/>
<ItemData ItemOID="IT.ADQS.PARAMCD" Value="ACITM04"/>
<ItemData ItemOID="IT.ADQS.PARAMN" Value="4"/>
<ItemData ItemOID="IT.ADQS.AVAL" Value="0"/>
<ItemData ItemOID="IT.ADQS.QSSEQ" Value="90"/>
<ItemData ItemOID="IT.ADQS.QSCAT" Value="ALZHEIMER'S DISEASE ASSESSMENT SCALE"/>
<ItemData ItemOID="IT.ADQS.QSORRES" Value="0"/>
<ItemData ItemOID="IT.ADQS.QSSTRESC" Value="0"/>
<ItemData ItemOID="IT.ADQS.AGE" Value="38"/>
<ItemData ItemOID="IT.ADQS.SEX" Value="F"/>
<ItemData ItemOID="IT.ADQS.TRTEDT" Value="17617"/>
<ItemData ItemOID="IT.ADQS.TRTSDT" Value="17576"/>
<ItemData ItemOID="IT.ADQS.SAFFL" Value="Y"/>
</ItemGroupData>
<ItemGroupData ItemGroupOID="IG.ADQS" data:ItemGroupDataSeq="95">
<ItemData ItemOID="IT.ADQS.STUDYID" Value="SASCSTDEMODATA"/>
<ItemData ItemOID="IT.ADQS.USUBJID" Value="S001P003"/>
<ItemData ItemOID="IT.ADQS.TRTP" Value="TRT A"/>
<ItemData ItemOID="IT.ADQS.TRTPN" Value="1"/>
<ItemData ItemOID="IT.ADQS.ADT" Value="17577"/>
<ItemData ItemOID="IT.ADQS.ADY" Value="1"/>
<ItemData ItemOID="IT.ADQS.AVISIT" Value="RANDOMIZATION"/>
<ItemData ItemOID="IT.ADQS.AVISITN" Value="1"/>
<ItemData ItemOID="IT.ADQS.PARAM" Value="Constructional Praxis"/>
<ItemData ItemOID="IT.ADQS.PARAMCD" Value="ACITM05"/>
<ItemData ItemOID="IT.ADQS.PARAMN" Value="5"/>
<ItemData ItemOID="IT.ADQS.AVAL" Value="0"/>
<ItemData ItemOID="IT.ADQS.QSSEQ" Value="95"/>
<ItemData ItemOID="IT.ADQS.QSCAT" Value="ALZHEIMER'S DISEASE ASSESSMENT SCALE"/>
<ItemData ItemOID="IT.ADQS.QSORRES" Value="0"/>
<ItemData ItemOID="IT.ADQS.QSSTRESC" Value="0"/>
<ItemData ItemOID="IT.ADQS.AGE" Value="38"/>
<ItemData ItemOID="IT.ADQS.SEX" Value="F"/>
<ItemData ItemOID="IT.ADQS.TRTEDT" Value="17617"/>
<ItemData ItemOID="IT.ADQS.TRTSDT" Value="17576"/>
<ItemData ItemOID="IT.ADQS.SAFFL" Value="Y"/>
</ItemGroupData>
<ItemGroupData ItemGroupOID="IG.ADQS" data:ItemGroupDataSeq="96">
<ItemData ItemOID="IT.ADQS.STUDYID" Value="SASCSTDEMODATA"/>
<ItemData ItemOID="IT.ADQS.USUBJID" Value="S001P003"/>
<ItemData ItemOID="IT.ADQS.TRTP" Value="TRT A"/>
<ItemData ItemOID="IT.ADQS.TRTPN" Value="1"/>
<ItemData ItemOID="IT.ADQS.ADT" Value="17589"/>
<ItemData ItemOID="IT.ADQS.ADY" Value="13"/>
<ItemData ItemOID="IT.ADQS.AVISIT" Value="2 WEEKS"/>
<ItemData ItemOID="IT.ADQS.AVISITN" Value="2"/>
<ItemData ItemOID="IT.ADQS.PARAM" Value="Constructional Praxis"/>
<ItemData ItemOID="IT.ADQS.PARAMCD" Value="ACITM05"/>
<ItemData ItemOID="IT.ADQS.PARAMN" Value="5"/>
<ItemData ItemOID="IT.ADQS.AVAL" Value="0"/>
<ItemData ItemOID="IT.ADQS.QSSEQ" Value="96"/>
<ItemData ItemOID="IT.ADQS.QSCAT" Value="ALZHEIMER'S DISEASE ASSESSMENT SCALE"/>
<ItemData ItemOID="IT.ADQS.QSORRES" Value="0"/>
<ItemData ItemOID="IT.ADQS.QSSTRESC" Value="0"/>
<ItemData ItemOID="IT.ADQS.AGE" Value="38"/>
<ItemData ItemOID="IT.ADQS.SEX" Value="F"/>
<ItemData ItemOID="IT.ADQS.TRTEDT" Value="17617"/>
<ItemData ItemOID="IT.ADQS.TRTSDT" Value="17576"/>
<ItemData ItemOID="IT.ADQS.SAFFL" Value="Y"/>
</ItemGroupData>
<ItemGroupData ItemGroupOID="IG.ADQS" data:ItemGroupDataSeq="97">
<ItemData ItemOID="IT.ADQS.STUDYID" Value="SASCSTDEMODATA"/>
<ItemData ItemOID="IT.ADQS.USUBJID" Value="S001P003"/>
<ItemData ItemOID="IT.ADQS.TRTP" Value="TRT A"/>
<ItemData ItemOID="IT.ADQS.TRTPN" Value="1"/>
<ItemData ItemOID="IT.ADQS.ADT" Value="17604"/>
<ItemData ItemOID="IT.ADQS.ADY" Value="28"/>
<ItemData ItemOID="IT.ADQS.AVISIT" Value="4 WEEKS"/>
<ItemData ItemOID="IT.ADQS.AVISITN" Value="3"/>
<ItemData ItemOID="IT.ADQS.PARAM" Value="Constructional Praxis"/>
<ItemData ItemOID="IT.ADQS.PARAMCD" Value="ACITM05"/>
<ItemData ItemOID="IT.ADQS.PARAMN" Value="5"/>
<ItemData ItemOID="IT.ADQS.AVAL" Value="0"/>
<ItemData ItemOID="IT.ADQS.QSSEQ" Value="97"/>
<ItemData ItemOID="IT.ADQS.QSCAT" Value="ALZHEIMER'S DISEASE ASSESSMENT SCALE"/>
<ItemData ItemOID="IT.ADQS.QSORRES" Value="0"/>
<ItemData ItemOID="IT.ADQS.QSSTRESC" Value="0"/>
<ItemData ItemOID="IT.ADQS.AGE" Value="38"/>
<ItemData ItemOID="IT.ADQS.SEX" Value="F"/>
<ItemData ItemOID="IT.ADQS.TRTEDT" Value="17617"/>
<ItemData ItemOID="IT.ADQS.TRTSDT" Value="17576"/>
<ItemData ItemOID="IT.ADQS.SAFFL" Value="Y"/>
</ItemGroupData>
<ItemGroupData ItemGroupOID="IG.ADQS" data:ItemGroupDataSeq="98">
<ItemData ItemOID="IT.ADQS.STUDYID" Value="SASCSTDEMODATA"/>
<ItemData ItemOID="IT.ADQS.USUBJID" Value="S001P003"/>
<ItemData ItemOID="IT.ADQS.TRTP" Value="TRT A"/>
<ItemData ItemOID="IT.ADQS.TRTPN" Value="1"/>
<ItemData ItemOID="IT.ADQS.ADT" Value="17623"/>
<ItemData ItemOID="IT.ADQS.ADY" Value="47"/>
<ItemData ItemOID="IT.ADQS.AVISIT" Value="6 WEEKS"/>
<ItemData ItemOID="IT.ADQS.AVISITN" Value="4"/>
<ItemData ItemOID="IT.ADQS.PARAM" Value="Constructional Praxis"/>
<ItemData ItemOID="IT.ADQS.PARAMCD" Value="ACITM05"/>
<ItemData ItemOID="IT.ADQS.PARAMN" Value="5"/>
<ItemData ItemOID="IT.ADQS.AVAL" Value="0"/>
<ItemData ItemOID="IT.ADQS.QSSEQ" Value="98"/>
<ItemData ItemOID="IT.ADQS.QSCAT" Value="ALZHEIMER'S DISEASE ASSESSMENT SCALE"/>
<ItemData ItemOID="IT.ADQS.QSORRES" Value="0"/>
<ItemData ItemOID="IT.ADQS.QSSTRESC" Value="0"/>
<ItemData ItemOID="IT.ADQS.AGE" Value="38"/>
<ItemData ItemOID="IT.ADQS.SEX" Value="F"/>
<ItemData ItemOID="IT.ADQS.TRTEDT" Value="17617"/>
<ItemData ItemOID="IT.ADQS.TRTSDT" Value="17576"/>
<ItemData ItemOID="IT.ADQS.SAFFL" Value="Y"/>
</ItemGroupData>
<ItemGroupData ItemGroupOID="IG.ADQS" data:ItemGroupDataSeq="99">
<ItemData ItemOID="IT.ADQS.STUDYID" Value="SASCSTDEMODATA"/>
<ItemData ItemOID="IT.ADQS.USUBJID" Value="S001P003"/>
<ItemData ItemOID="IT.ADQS.TRTP" Value="TRT A"/>
<ItemData ItemOID="IT.ADQS.TRTPN" Value="1"/>
<ItemData ItemOID="IT.ADQS.ADT" Value="17577"/>
<ItemData ItemOID="IT.ADQS.ADY" Value="1"/>
<ItemData ItemOID="IT.ADQS.AVISIT" Value="RANDOMIZATION"/>
<ItemData ItemOID="IT.ADQS.AVISITN" Value="1"/>
<ItemData ItemOID="IT.ADQS.PARAM" Value="Ideational Praxis"/>
<ItemData ItemOID="IT.ADQS.PARAMCD" Value="ACITM06"/>
<ItemData ItemOID="IT.ADQS.PARAMN" Value="6"/>
<ItemData ItemOID="IT.ADQS.AVAL" Value="0"/>
<ItemData ItemOID="IT.ADQS.QSSEQ" Value="106"/>
<ItemData ItemOID="IT.ADQS.QSCAT" Value="ALZHEIMER'S DISEASE ASSESSMENT SCALE"/>
<ItemData ItemOID="IT.ADQS.QSORRES" Value="0"/>
<ItemData ItemOID="IT.ADQS.QSSTRESC" Value="0"/>
<ItemData ItemOID="IT.ADQS.AGE" Value="38"/>
<ItemData ItemOID="IT.ADQS.SEX" Value="F"/>
<ItemData ItemOID="IT.ADQS.TRTEDT" Value="17617"/>
<ItemData ItemOID="IT.ADQS.TRTSDT" Value="17576"/>
<ItemData ItemOID="IT.ADQS.SAFFL" Value="Y"/>
</ItemGroupData>
<ItemGroupData ItemGroupOID="IG.ADQS" data:ItemGroupDataSeq="100">
<ItemData ItemOID="IT.ADQS.STUDYID" Value="SASCSTDEMODATA"/>
<ItemData ItemOID="IT.ADQS.USUBJID" Value="S001P003"/>
<ItemData ItemOID="IT.ADQS.TRTP" Value="TRT A"/>
<ItemData ItemOID="IT.ADQS.TRTPN" Value="1"/>
<ItemData ItemOID="IT.ADQS.ADT" Value="17589"/>
<ItemData ItemOID="IT.ADQS.ADY" Value="13"/>
<ItemData ItemOID="IT.ADQS.AVISIT" Value="2 WEEKS"/>
<ItemData ItemOID="IT.ADQS.AVISITN" Value="2"/>
<ItemData ItemOID="IT.ADQS.PARAM" Value="Ideational Praxis"/>
<ItemData ItemOID="IT.ADQS.PARAMCD" Value="ACITM06"/>
<ItemData ItemOID="IT.ADQS.PARAMN" Value="6"/>
<ItemData ItemOID="IT.ADQS.AVAL" Value="0"/>
<ItemData ItemOID="IT.ADQS.QSSEQ" Value="107"/>
<ItemData ItemOID="IT.ADQS.QSCAT" Value="ALZHEIMER'S DISEASE ASSESSMENT SCALE"/>
<ItemData ItemOID="IT.ADQS.QSORRES" Value="0"/>
<ItemData ItemOID="IT.ADQS.QSSTRESC" Value="0"/>
<ItemData ItemOID="IT.ADQS.AGE" Value="38"/>
<ItemData ItemOID="IT.ADQS.SEX" Value="F"/>
<ItemData ItemOID="IT.ADQS.TRTEDT" Value="17617"/>
<ItemData ItemOID="IT.ADQS.TRTSDT" Value="17576"/>
<ItemData ItemOID="IT.ADQS.SAFFL" Value="Y"/>
</ItemGroupData>
<ItemGroupData ItemGroupOID="IG.ADQS" data:ItemGroupDataSeq="101">
<ItemData ItemOID="IT.ADQS.STUDYID" Value="SASCSTDEMODATA"/>
<ItemData ItemOID="IT.ADQS.USUBJID" Value="S001P003"/>
<ItemData ItemOID="IT.ADQS.TRTP" Value="TRT A"/>
<ItemData ItemOID="IT.ADQS.TRTPN" Value="1"/>
<ItemData ItemOID="IT.ADQS.ADT" Value="17604"/>
<ItemData ItemOID="IT.ADQS.ADY" Value="28"/>
<ItemData ItemOID="IT.ADQS.AVISIT" Value="4 WEEKS"/>
<ItemData ItemOID="IT.ADQS.AVISITN" Value="3"/>
<ItemData ItemOID="IT.ADQS.PARAM" Value="Ideational Praxis"/>
<ItemData ItemOID="IT.ADQS.PARAMCD" Value="ACITM06"/>
<ItemData ItemOID="IT.ADQS.PARAMN" Value="6"/>
<ItemData ItemOID="IT.ADQS.AVAL" Value="0"/>
<ItemData ItemOID="IT.ADQS.QSSEQ" Value="108"/>
<ItemData ItemOID="IT.ADQS.QSCAT" Value="ALZHEIMER'S DISEASE ASSESSMENT SCALE"/>
<ItemData ItemOID="IT.ADQS.QSORRES" Value="0"/>
<ItemData ItemOID="IT.ADQS.QSSTRESC" Value="0"/>
<ItemData ItemOID="IT.ADQS.AGE" Value="38"/>
<ItemData ItemOID="IT.ADQS.SEX" Value="F"/>
<ItemData ItemOID="IT.ADQS.TRTEDT" Value="17617"/>
<ItemData ItemOID="IT.ADQS.TRTSDT" Value="17576"/>
<ItemData ItemOID="IT.ADQS.SAFFL" Value="Y"/>
</ItemGroupData>
<ItemGroupData ItemGroupOID="IG.ADQS" data:ItemGroupDataSeq="102">
<ItemData ItemOID="IT.ADQS.STUDYID" Value="SASCSTDEMODATA"/>
<ItemData ItemOID="IT.ADQS.USUBJID" Value="S001P003"/>
<ItemData ItemOID="IT.ADQS.TRTP" Value="TRT A"/>
<ItemData ItemOID="IT.ADQS.TRTPN" Value="1"/>
<ItemData ItemOID="IT.ADQS.ADT" Value="17623"/>
<ItemData ItemOID="IT.ADQS.ADY" Value="47"/>
<ItemData ItemOID="IT.ADQS.AVISIT" Value="6 WEEKS"/>
<ItemData ItemOID="IT.ADQS.AVISITN" Value="4"/>
<ItemData ItemOID="IT.ADQS.PARAM" Value="Ideational Praxis"/>
<ItemData ItemOID="IT.ADQS.PARAMCD" Value="ACITM06"/>
<ItemData ItemOID="IT.ADQS.PARAMN" Value="6"/>
<ItemData ItemOID="IT.ADQS.AVAL" Value="0"/>
<ItemData ItemOID="IT.ADQS.QSSEQ" Value="109"/>
<ItemData ItemOID="IT.ADQS.QSCAT" Value="ALZHEIMER'S DISEASE ASSESSMENT SCALE"/>
<ItemData ItemOID="IT.ADQS.QSORRES" Value="0"/>
<ItemData ItemOID="IT.ADQS.QSSTRESC" Value="0"/>
<ItemData ItemOID="IT.ADQS.AGE" Value="38"/>
<ItemData ItemOID="IT.ADQS.SEX" Value="F"/>
<ItemData ItemOID="IT.ADQS.TRTEDT" Value="17617"/>
<ItemData ItemOID="IT.ADQS.TRTSDT" Value="17576"/>
<ItemData ItemOID="IT.ADQS.SAFFL" Value="Y"/>
</ItemGroupData>
<ItemGroupData ItemGroupOID="IG.ADQS" data:ItemGroupDataSeq="103">
<ItemData ItemOID="IT.ADQS.STUDYID" Value="SASCSTDEMODATA"/>
<ItemData ItemOID="IT.ADQS.USUBJID" Value="S001P003"/>
<ItemData ItemOID="IT.ADQS.TRTP" Value="TRT A"/>
<ItemData ItemOID="IT.ADQS.TRTPN" Value="1"/>
<ItemData ItemOID="IT.ADQS.ADT" Value="17577"/>
<ItemData ItemOID="IT.ADQS.ADY" Value="1"/>
<ItemData ItemOID="IT.ADQS.AVISIT" Value="RANDOMIZATION"/>
<ItemData ItemOID="IT.ADQS.AVISITN" Value="1"/>
<ItemData ItemOID="IT.ADQS.PARAM" Value="Orientation"/>
<ItemData ItemOID="IT.ADQS.PARAMCD" Value="ACITM07"/>
<ItemData ItemOID="IT.ADQS.PARAMN" Value="7"/>
<ItemData ItemOID="IT.ADQS.AVAL" Value="0"/>
<ItemData ItemOID="IT.ADQS.QSSEQ" Value="118"/>
<ItemData ItemOID="IT.ADQS.QSCAT" Value="ALZHEIMER'S DISEASE ASSESSMENT SCALE"/>
<ItemData ItemOID="IT.ADQS.QSORRES" Value="0"/>
<ItemData ItemOID="IT.ADQS.QSSTRESC" Value="0"/>
<ItemData ItemOID="IT.ADQS.AGE" Value="38"/>
<ItemData ItemOID="IT.ADQS.SEX" Value="F"/>
<ItemData ItemOID="IT.ADQS.TRTEDT" Value="17617"/>
<ItemData ItemOID="IT.ADQS.TRTSDT" Value="17576"/>
<ItemData ItemOID="IT.ADQS.SAFFL" Value="Y"/>
</ItemGroupData>
<ItemGroupData ItemGroupOID="IG.ADQS" data:ItemGroupDataSeq="104">
<ItemData ItemOID="IT.ADQS.STUDYID" Value="SASCSTDEMODATA"/>
<ItemData ItemOID="IT.ADQS.USUBJID" Value="S001P003"/>
<ItemData ItemOID="IT.ADQS.TRTP" Value="TRT A"/>
<ItemData ItemOID="IT.ADQS.TRTPN" Value="1"/>
<ItemData ItemOID="IT.ADQS.ADT" Value="17589"/>
<ItemData ItemOID="IT.ADQS.ADY" Value="13"/>
<ItemData ItemOID="IT.ADQS.AVISIT" Value="2 WEEKS"/>
<ItemData ItemOID="IT.ADQS.AVISITN" Value="2"/>
<ItemData ItemOID="IT.ADQS.PARAM" Value="Orientation"/>
<ItemData ItemOID="IT.ADQS.PARAMCD" Value="ACITM07"/>
<ItemData ItemOID="IT.ADQS.PARAMN" Value="7"/>
<ItemData ItemOID="IT.ADQS.AVAL" Value="0"/>
<ItemData ItemOID="IT.ADQS.QSSEQ" Value="119"/>
<ItemData ItemOID="IT.ADQS.QSCAT" Value="ALZHEIMER'S DISEASE ASSESSMENT SCALE"/>
<ItemData ItemOID="IT.ADQS.QSORRES" Value="0"/>
<ItemData ItemOID="IT.ADQS.QSSTRESC" Value="0"/>
<ItemData ItemOID="IT.ADQS.AGE" Value="38"/>
<ItemData ItemOID="IT.ADQS.SEX" Value="F"/>
<ItemData ItemOID="IT.ADQS.TRTEDT" Value="17617"/>
<ItemData ItemOID="IT.ADQS.TRTSDT" Value="17576"/>
<ItemData ItemOID="IT.ADQS.SAFFL" Value="Y"/>
</ItemGroupData>
<ItemGroupData ItemGroupOID="IG.ADQS" data:ItemGroupDataSeq="105">
<ItemData ItemOID="IT.ADQS.STUDYID" Value="SASCSTDEMODATA"/>
<ItemData ItemOID="IT.ADQS.USUBJID" Value="S001P003"/>
<ItemData ItemOID="IT.ADQS.TRTP" Value="TRT A"/>
<ItemData ItemOID="IT.ADQS.TRTPN" Value="1"/>
<ItemData ItemOID="IT.ADQS.ADT" Value="17604"/>
<ItemData ItemOID="IT.ADQS.ADY" Value="28"/>
<ItemData ItemOID="IT.ADQS.AVISIT" Value="4 WEEKS"/>
<ItemData ItemOID="IT.ADQS.AVISITN" Value="3"/>
<ItemData ItemOID="IT.ADQS.PARAM" Value="Orientation"/>
<ItemData ItemOID="IT.ADQS.PARAMCD" Value="ACITM07"/>
<ItemData ItemOID="IT.ADQS.PARAMN" Value="7"/>
<ItemData ItemOID="IT.ADQS.AVAL" Value="0"/>
<ItemData ItemOID="IT.ADQS.QSSEQ" Value="120"/>
<ItemData ItemOID="IT.ADQS.QSCAT" Value="ALZHEIMER'S DISEASE ASSESSMENT SCALE"/>
<ItemData ItemOID="IT.ADQS.QSORRES" Value="0"/>
<ItemData ItemOID="IT.ADQS.QSSTRESC" Value="0"/>
<ItemData ItemOID="IT.ADQS.AGE" Value="38"/>
<ItemData ItemOID="IT.ADQS.SEX" Value="F"/>
<ItemData ItemOID="IT.ADQS.TRTEDT" Value="17617"/>
<ItemData ItemOID="IT.ADQS.TRTSDT" Value="17576"/>
<ItemData ItemOID="IT.ADQS.SAFFL" Value="Y"/>
</ItemGroupData>
<ItemGroupData ItemGroupOID="IG.ADQS" data:ItemGroupDataSeq="106">
<ItemData ItemOID="IT.ADQS.STUDYID" Value="SASCSTDEMODATA"/>
<ItemData ItemOID="IT.ADQS.USUBJID" Value="S001P003"/>
<ItemData ItemOID="IT.ADQS.TRTP" Value="TRT A"/>
<ItemData ItemOID="IT.ADQS.TRTPN" Value="1"/>
<ItemData ItemOID="IT.ADQS.ADT" Value="17623"/>
<ItemData ItemOID="IT.ADQS.ADY" Value="47"/>
<ItemData ItemOID="IT.ADQS.AVISIT" Value="6 WEEKS"/>
<ItemData ItemOID="IT.ADQS.AVISITN" Value="4"/>
<ItemData ItemOID="IT.ADQS.PARAM" Value="Orientation"/>
<ItemData ItemOID="IT.ADQS.PARAMCD" Value="ACITM07"/>
<ItemData ItemOID="IT.ADQS.PARAMN" Value="7"/>
<ItemData ItemOID="IT.ADQS.AVAL" Value="0"/>
<ItemData ItemOID="IT.ADQS.QSSEQ" Value="121"/>
<ItemData ItemOID="IT.ADQS.QSCAT" Value="ALZHEIMER'S DISEASE ASSESSMENT SCALE"/>
<ItemData ItemOID="IT.ADQS.QSORRES" Value="0"/>
<ItemData ItemOID="IT.ADQS.QSSTRESC" Value="0"/>
<ItemData ItemOID="IT.ADQS.AGE" Value="38"/>
<ItemData ItemOID="IT.ADQS.SEX" Value="F"/>
<ItemData ItemOID="IT.ADQS.TRTEDT" Value="17617"/>
<ItemData ItemOID="IT.ADQS.TRTSDT" Value="17576"/>
<ItemData ItemOID="IT.ADQS.SAFFL" Value="Y"/>
</ItemGroupData>
<ItemGroupData ItemGroupOID="IG.ADQS" data:ItemGroupDataSeq="107">
<ItemData ItemOID="IT.ADQS.STUDYID" Value="SASCSTDEMODATA"/>
<ItemData ItemOID="IT.ADQS.USUBJID" Value="S001P003"/>
<ItemData ItemOID="IT.ADQS.TRTP" Value="TRT A"/>
<ItemData ItemOID="IT.ADQS.TRTPN" Value="1"/>
<ItemData ItemOID="IT.ADQS.ADT" Value="17577"/>
<ItemData ItemOID="IT.ADQS.ADY" Value="1"/>
<ItemData ItemOID="IT.ADQS.AVISIT" Value="RANDOMIZATION"/>
<ItemData ItemOID="IT.ADQS.AVISITN" Value="1"/>
<ItemData ItemOID="IT.ADQS.PARAM" Value="Word Recognition"/>
<ItemData ItemOID="IT.ADQS.PARAMCD" Value="ACITM08"/>
<ItemData ItemOID="IT.ADQS.PARAMN" Value="8"/>
<ItemData ItemOID="IT.ADQS.AVAL" Value="2"/>
<ItemData ItemOID="IT.ADQS.QSSEQ" Value="138"/>
<ItemData ItemOID="IT.ADQS.QSCAT" Value="ALZHEIMER'S DISEASE ASSESSMENT SCALE"/>
<ItemData ItemOID="IT.ADQS.QSORRES" Value="2"/>
<ItemData ItemOID="IT.ADQS.QSSTRESC" Value="2"/>
<ItemData ItemOID="IT.ADQS.AGE" Value="38"/>
<ItemData ItemOID="IT.ADQS.SEX" Value="F"/>
<ItemData ItemOID="IT.ADQS.TRTEDT" Value="17617"/>
<ItemData ItemOID="IT.ADQS.TRTSDT" Value="17576"/>
<ItemData ItemOID="IT.ADQS.SAFFL" Value="Y"/>
</ItemGroupData>
<ItemGroupData ItemGroupOID="IG.ADQS" data:ItemGroupDataSeq="108">
<ItemData ItemOID="IT.ADQS.STUDYID" Value="SASCSTDEMODATA"/>
<ItemData ItemOID="IT.ADQS.USUBJID" Value="S001P003"/>
<ItemData ItemOID="IT.ADQS.TRTP" Value="TRT A"/>
<ItemData ItemOID="IT.ADQS.TRTPN" Value="1"/>
<ItemData ItemOID="IT.ADQS.ADT" Value="17589"/>
<ItemData ItemOID="IT.ADQS.ADY" Value="13"/>
<ItemData ItemOID="IT.ADQS.AVISIT" Value="2 WEEKS"/>
<ItemData ItemOID="IT.ADQS.AVISITN" Value="2"/>
<ItemData ItemOID="IT.ADQS.PARAM" Value="Word Recognition"/>
<ItemData ItemOID="IT.ADQS.PARAMCD" Value="ACITM08"/>
<ItemData ItemOID="IT.ADQS.PARAMN" Value="8"/>
<ItemData ItemOID="IT.ADQS.AVAL" Value="1"/>
<ItemData ItemOID="IT.ADQS.QSSEQ" Value="139"/>
<ItemData ItemOID="IT.ADQS.QSCAT" Value="ALZHEIMER'S DISEASE ASSESSMENT SCALE"/>
<ItemData ItemOID="IT.ADQS.QSORRES" Value="1"/>
<ItemData ItemOID="IT.ADQS.QSSTRESC" Value="1"/>
<ItemData ItemOID="IT.ADQS.AGE" Value="38"/>
<ItemData ItemOID="IT.ADQS.SEX" Value="F"/>
<ItemData ItemOID="IT.ADQS.TRTEDT" Value="17617"/>
<ItemData ItemOID="IT.ADQS.TRTSDT" Value="17576"/>
<ItemData ItemOID="IT.ADQS.SAFFL" Value="Y"/>
</ItemGroupData>
<ItemGroupData ItemGroupOID="IG.ADQS" data:ItemGroupDataSeq="109">
<ItemData ItemOID="IT.ADQS.STUDYID" Value="SASCSTDEMODATA"/>
<ItemData ItemOID="IT.ADQS.USUBJID" Value="S001P003"/>
<ItemData ItemOID="IT.ADQS.TRTP" Value="TRT A"/>
<ItemData ItemOID="IT.ADQS.TRTPN" Value="1"/>
<ItemData ItemOID="IT.ADQS.ADT" Value="17604"/>
<ItemData ItemOID="IT.ADQS.ADY" Value="28"/>
<ItemData ItemOID="IT.ADQS.AVISIT" Value="4 WEEKS"/>
<ItemData ItemOID="IT.ADQS.AVISITN" Value="3"/>
<ItemData ItemOID="IT.ADQS.PARAM" Value="Word Recognition"/>
<ItemData ItemOID="IT.ADQS.PARAMCD" Value="ACITM08"/>
<ItemData ItemOID="IT.ADQS.PARAMN" Value="8"/>
<ItemData ItemOID="IT.ADQS.AVAL" Value="1"/>
<ItemData ItemOID="IT.ADQS.QSSEQ" Value="140"/>
<ItemData ItemOID="IT.ADQS.QSCAT" Value="ALZHEIMER'S DISEASE ASSESSMENT SCALE"/>
<ItemData ItemOID="IT.ADQS.QSORRES" Value="1"/>
<ItemData ItemOID="IT.ADQS.QSSTRESC" Value="1"/>
<ItemData ItemOID="IT.ADQS.AGE" Value="38"/>
<ItemData ItemOID="IT.ADQS.SEX" Value="F"/>
<ItemData ItemOID="IT.ADQS.TRTEDT" Value="17617"/>
<ItemData ItemOID="IT.ADQS.TRTSDT" Value="17576"/>
<ItemData ItemOID="IT.ADQS.SAFFL" Value="Y"/>
</ItemGroupData>
<ItemGroupData ItemGroupOID="IG.ADQS" data:ItemGroupDataSeq="110">
<ItemData ItemOID="IT.ADQS.STUDYID" Value="SASCSTDEMODATA"/>
<ItemData ItemOID="IT.ADQS.USUBJID" Value="S001P003"/>
<ItemData ItemOID="IT.ADQS.TRTP" Value="TRT A"/>
<ItemData ItemOID="IT.ADQS.TRTPN" Value="1"/>
<ItemData ItemOID="IT.ADQS.ADT" Value="17623"/>
<ItemData ItemOID="IT.ADQS.ADY" Value="47"/>
<ItemData ItemOID="IT.ADQS.AVISIT" Value="6 WEEKS"/>
<ItemData ItemOID="IT.ADQS.AVISITN" Value="4"/>
<ItemData ItemOID="IT.ADQS.PARAM" Value="Word Recognition"/>
<ItemData ItemOID="IT.ADQS.PARAMCD" Value="ACITM08"/>
<ItemData ItemOID="IT.ADQS.PARAMN" Value="8"/>
<ItemData ItemOID="IT.ADQS.AVAL" Value="1"/>
<ItemData ItemOID="IT.ADQS.QSSEQ" Value="141"/>
<ItemData ItemOID="IT.ADQS.QSCAT" Value="ALZHEIMER'S DISEASE ASSESSMENT SCALE"/>
<ItemData ItemOID="IT.ADQS.QSORRES" Value="1"/>
<ItemData ItemOID="IT.ADQS.QSSTRESC" Value="1"/>
<ItemData ItemOID="IT.ADQS.AGE" Value="38"/>
<ItemData ItemOID="IT.ADQS.SEX" Value="F"/>
<ItemData ItemOID="IT.ADQS.TRTEDT" Value="17617"/>
<ItemData ItemOID="IT.ADQS.TRTSDT" Value="17576"/>
<ItemData ItemOID="IT.ADQS.SAFFL" Value="Y"/>
</ItemGroupData>
<ItemGroupData ItemGroupOID="IG.ADQS" data:ItemGroupDataSeq="111">
<ItemData ItemOID="IT.ADQS.STUDYID" Value="SASCSTDEMODATA"/>
<ItemData ItemOID="IT.ADQS.USUBJID" Value="S001P003"/>
<ItemData ItemOID="IT.ADQS.TRTP" Value="TRT A"/>
<ItemData ItemOID="IT.ADQS.TRTPN" Value="1"/>
<ItemData ItemOID="IT.ADQS.ADT" Value="17577"/>
<ItemData ItemOID="IT.ADQS.ADY" Value="1"/>
<ItemData ItemOID="IT.ADQS.AVISIT" Value="RANDOMIZATION"/>
<ItemData ItemOID="IT.ADQS.AVISITN" Value="1"/>
<ItemData ItemOID="IT.ADQS.PARAM" Value="Attention/Visual Search Task"/>
<ItemData ItemOID="IT.ADQS.PARAMCD" Value="ACITM09"/>
<ItemData ItemOID="IT.ADQS.PARAMN" Value="9"/>
<ItemData ItemOID="IT.ADQS.AVAL" Value="24"/>
<ItemData ItemOID="IT.ADQS.QSSEQ" Value="83"/>
<ItemData ItemOID="IT.ADQS.QSCAT" Value="ALZHEIMER'S DISEASE ASSESSMENT SCALE"/>
<ItemData ItemOID="IT.ADQS.QSORRES" Value="24"/>
<ItemData ItemOID="IT.ADQS.QSSTRESC" Value="24"/>
<ItemData ItemOID="IT.ADQS.AGE" Value="38"/>
<ItemData ItemOID="IT.ADQS.SEX" Value="F"/>
<ItemData ItemOID="IT.ADQS.TRTEDT" Value="17617"/>
<ItemData ItemOID="IT.ADQS.TRTSDT" Value="17576"/>
<ItemData ItemOID="IT.ADQS.SAFFL" Value="Y"/>
</ItemGroupData>
<ItemGroupData ItemGroupOID="IG.ADQS" data:ItemGroupDataSeq="112">
<ItemData ItemOID="IT.ADQS.STUDYID" Value="SASCSTDEMODATA"/>
<ItemData ItemOID="IT.ADQS.USUBJID" Value="S001P003"/>
<ItemData ItemOID="IT.ADQS.TRTP" Value="TRT A"/>
<ItemData ItemOID="IT.ADQS.TRTPN" Value="1"/>
<ItemData ItemOID="IT.ADQS.ADT" Value="17589"/>
<ItemData ItemOID="IT.ADQS.ADY" Value="13"/>
<ItemData ItemOID="IT.ADQS.AVISIT" Value="2 WEEKS"/>
<ItemData ItemOID="IT.ADQS.AVISITN" Value="2"/>
<ItemData ItemOID="IT.ADQS.PARAM" Value="Attention/Visual Search Task"/>
<ItemData ItemOID="IT.ADQS.PARAMCD" Value="ACITM09"/>
<ItemData ItemOID="IT.ADQS.PARAMN" Value="9"/>
<ItemData ItemOID="IT.ADQS.AVAL" Value="25"/>
<ItemData ItemOID="IT.ADQS.QSSEQ" Value="84"/>
<ItemData ItemOID="IT.ADQS.QSCAT" Value="ALZHEIMER'S DISEASE ASSESSMENT SCALE"/>
<ItemData ItemOID="IT.ADQS.QSORRES" Value="25"/>
<ItemData ItemOID="IT.ADQS.QSSTRESC" Value="25"/>
<ItemData ItemOID="IT.ADQS.AGE" Value="38"/>
<ItemData ItemOID="IT.ADQS.SEX" Value="F"/>
<ItemData ItemOID="IT.ADQS.TRTEDT" Value="17617"/>
<ItemData ItemOID="IT.ADQS.TRTSDT" Value="17576"/>
<ItemData ItemOID="IT.ADQS.SAFFL" Value="Y"/>
</ItemGroupData>
<ItemGroupData ItemGroupOID="IG.ADQS" data:ItemGroupDataSeq="113">
<ItemData ItemOID="IT.ADQS.STUDYID" Value="SASCSTDEMODATA"/>
<ItemData ItemOID="IT.ADQS.USUBJID" Value="S001P003"/>
<ItemData ItemOID="IT.ADQS.TRTP" Value="TRT A"/>
<ItemData ItemOID="IT.ADQS.TRTPN" Value="1"/>
<ItemData ItemOID="IT.ADQS.ADT" Value="17604"/>
<ItemData ItemOID="IT.ADQS.ADY" Value="28"/>
<ItemData ItemOID="IT.ADQS.AVISIT" Value="4 WEEKS"/>
<ItemData ItemOID="IT.ADQS.AVISITN" Value="3"/>
<ItemData ItemOID="IT.ADQS.PARAM" Value="Attention/Visual Search Task"/>
<ItemData ItemOID="IT.ADQS.PARAMCD" Value="ACITM09"/>
<ItemData ItemOID="IT.ADQS.PARAMN" Value="9"/>
<ItemData ItemOID="IT.ADQS.AVAL" Value="34"/>
<ItemData ItemOID="IT.ADQS.QSSEQ" Value="85"/>
<ItemData ItemOID="IT.ADQS.QSCAT" Value="ALZHEIMER'S DISEASE ASSESSMENT SCALE"/>
<ItemData ItemOID="IT.ADQS.QSORRES" Value="34"/>
<ItemData ItemOID="IT.ADQS.QSSTRESC" Value="34"/>
<ItemData ItemOID="IT.ADQS.AGE" Value="38"/>
<ItemData ItemOID="IT.ADQS.SEX" Value="F"/>
<ItemData ItemOID="IT.ADQS.TRTEDT" Value="17617"/>
<ItemData ItemOID="IT.ADQS.TRTSDT" Value="17576"/>
<ItemData ItemOID="IT.ADQS.SAFFL" Value="Y"/>
</ItemGroupData>
<ItemGroupData ItemGroupOID="IG.ADQS" data:ItemGroupDataSeq="114">
<ItemData ItemOID="IT.ADQS.STUDYID" Value="SASCSTDEMODATA"/>
<ItemData ItemOID="IT.ADQS.USUBJID" Value="S001P003"/>
<ItemData ItemOID="IT.ADQS.TRTP" Value="TRT A"/>
<ItemData ItemOID="IT.ADQS.TRTPN" Value="1"/>
<ItemData ItemOID="IT.ADQS.ADT" Value="17623"/>
<ItemData ItemOID="IT.ADQS.ADY" Value="47"/>
<ItemData ItemOID="IT.ADQS.AVISIT" Value="6 WEEKS"/>
<ItemData ItemOID="IT.ADQS.AVISITN" Value="4"/>
<ItemData ItemOID="IT.ADQS.PARAM" Value="Attention/Visual Search Task"/>
<ItemData ItemOID="IT.ADQS.PARAMCD" Value="ACITM09"/>
<ItemData ItemOID="IT.ADQS.PARAMN" Value="9"/>
<ItemData ItemOID="IT.ADQS.AVAL" Value="26"/>
<ItemData ItemOID="IT.ADQS.QSSEQ" Value="86"/>
<ItemData ItemOID="IT.ADQS.QSCAT" Value="ALZHEIMER'S DISEASE ASSESSMENT SCALE"/>
<ItemData ItemOID="IT.ADQS.QSORRES" Value="26"/>
<ItemData ItemOID="IT.ADQS.QSSTRESC" Value="26"/>
<ItemData ItemOID="IT.ADQS.AGE" Value="38"/>
<ItemData ItemOID="IT.ADQS.SEX" Value="F"/>
<ItemData ItemOID="IT.ADQS.TRTEDT" Value="17617"/>
<ItemData ItemOID="IT.ADQS.TRTSDT" Value="17576"/>
<ItemData ItemOID="IT.ADQS.SAFFL" Value="Y"/>
</ItemGroupData>
<ItemGroupData ItemGroupOID="IG.ADQS" data:ItemGroupDataSeq="115">
<ItemData ItemOID="IT.ADQS.STUDYID" Value="SASCSTDEMODATA"/>
<ItemData ItemOID="IT.ADQS.USUBJID" Value="S001P003"/>
<ItemData ItemOID="IT.ADQS.TRTP" Value="TRT A"/>
<ItemData ItemOID="IT.ADQS.TRTPN" Value="1"/>
<ItemData ItemOID="IT.ADQS.ADT" Value="17577"/>
<ItemData ItemOID="IT.ADQS.ADY" Value="1"/>
<ItemData ItemOID="IT.ADQS.AVISIT" Value="RANDOMIZATION"/>
<ItemData ItemOID="IT.ADQS.AVISITN" Value="1"/>
<ItemData ItemOID="IT.ADQS.PARAM" Value="Maze Solution"/>
<ItemData ItemOID="IT.ADQS.PARAMCD" Value="ACITM10"/>
<ItemData ItemOID="IT.ADQS.PARAMN" Value="10"/>
<ItemData ItemOID="IT.ADQS.AVAL" Value="4"/>
<ItemData ItemOID="IT.ADQS.QSSEQ" Value="110"/>
<ItemData ItemOID="IT.ADQS.QSCAT" Value="ALZHEIMER'S DISEASE ASSESSMENT SCALE"/>
<ItemData ItemOID="IT.ADQS.QSORRES" Value="4"/>
<ItemData ItemOID="IT.ADQS.QSORRESU" Value="seconds"/>
<ItemData ItemOID="IT.ADQS.QSSTRESC" Value="4"/>
<ItemData ItemOID="IT.ADQS.QSSTRESU" Value="seconds"/>
<ItemData ItemOID="IT.ADQS.AGE" Value="38"/>
<ItemData ItemOID="IT.ADQS.SEX" Value="F"/>
<ItemData ItemOID="IT.ADQS.TRTEDT" Value="17617"/>
<ItemData ItemOID="IT.ADQS.TRTSDT" Value="17576"/>
<ItemData ItemOID="IT.ADQS.SAFFL" Value="Y"/>
</ItemGroupData>
<ItemGroupData ItemGroupOID="IG.ADQS" data:ItemGroupDataSeq="116">
<ItemData ItemOID="IT.ADQS.STUDYID" Value="SASCSTDEMODATA"/>
<ItemData ItemOID="IT.ADQS.USUBJID" Value="S001P003"/>
<ItemData ItemOID="IT.ADQS.TRTP" Value="TRT A"/>
<ItemData ItemOID="IT.ADQS.TRTPN" Value="1"/>
<ItemData ItemOID="IT.ADQS.ADT" Value="17589"/>
<ItemData ItemOID="IT.ADQS.ADY" Value="13"/>
<ItemData ItemOID="IT.ADQS.AVISIT" Value="2 WEEKS"/>
<ItemData ItemOID="IT.ADQS.AVISITN" Value="2"/>
<ItemData ItemOID="IT.ADQS.PARAM" Value="Maze Solution"/>
<ItemData ItemOID="IT.ADQS.PARAMCD" Value="ACITM10"/>
<ItemData ItemOID="IT.ADQS.PARAMN" Value="10"/>
<ItemData ItemOID="IT.ADQS.AVAL" Value="5"/>
<ItemData ItemOID="IT.ADQS.QSSEQ" Value="111"/>
<ItemData ItemOID="IT.ADQS.QSCAT" Value="ALZHEIMER'S DISEASE ASSESSMENT SCALE"/>
<ItemData ItemOID="IT.ADQS.QSORRES" Value="5"/>
<ItemData ItemOID="IT.ADQS.QSORRESU" Value="seconds"/>
<ItemData ItemOID="IT.ADQS.QSSTRESC" Value="5"/>
<ItemData ItemOID="IT.ADQS.QSSTRESU" Value="seconds"/>
<ItemData ItemOID="IT.ADQS.AGE" Value="38"/>
<ItemData ItemOID="IT.ADQS.SEX" Value="F"/>
<ItemData ItemOID="IT.ADQS.TRTEDT" Value="17617"/>
<ItemData ItemOID="IT.ADQS.TRTSDT" Value="17576"/>
<ItemData ItemOID="IT.ADQS.SAFFL" Value="Y"/>
</ItemGroupData>
<ItemGroupData ItemGroupOID="IG.ADQS" data:ItemGroupDataSeq="117">
<ItemData ItemOID="IT.ADQS.STUDYID" Value="SASCSTDEMODATA"/>
<ItemData ItemOID="IT.ADQS.USUBJID" Value="S001P003"/>
<ItemData ItemOID="IT.ADQS.TRTP" Value="TRT A"/>
<ItemData ItemOID="IT.ADQS.TRTPN" Value="1"/>
<ItemData ItemOID="IT.ADQS.ADT" Value="17604"/>
<ItemData ItemOID="IT.ADQS.ADY" Value="28"/>
<ItemData ItemOID="IT.ADQS.AVISIT" Value="4 WEEKS"/>
<ItemData ItemOID="IT.ADQS.AVISITN" Value="3"/>
<ItemData ItemOID="IT.ADQS.PARAM" Value="Maze Solution"/>
<ItemData ItemOID="IT.ADQS.PARAMCD" Value="ACITM10"/>
<ItemData ItemOID="IT.ADQS.PARAMN" Value="10"/>
<ItemData ItemOID="IT.ADQS.AVAL" Value="5"/>
<ItemData ItemOID="IT.ADQS.QSSEQ" Value="112"/>
<ItemData ItemOID="IT.ADQS.QSCAT" Value="ALZHEIMER'S DISEASE ASSESSMENT SCALE"/>
<ItemData ItemOID="IT.ADQS.QSORRES" Value="5"/>
<ItemData ItemOID="IT.ADQS.QSORRESU" Value="seconds"/>
<ItemData ItemOID="IT.ADQS.QSSTRESC" Value="5"/>
<ItemData ItemOID="IT.ADQS.QSSTRESU" Value="seconds"/>
<ItemData ItemOID="IT.ADQS.AGE" Value="38"/>
<ItemData ItemOID="IT.ADQS.SEX" Value="F"/>
<ItemData ItemOID="IT.ADQS.TRTEDT" Value="17617"/>
<ItemData ItemOID="IT.ADQS.TRTSDT" Value="17576"/>
<ItemData ItemOID="IT.ADQS.SAFFL" Value="Y"/>
</ItemGroupData>
<ItemGroupData ItemGroupOID="IG.ADQS" data:ItemGroupDataSeq="118">
<ItemData ItemOID="IT.ADQS.STUDYID" Value="SASCSTDEMODATA"/>
<ItemData ItemOID="IT.ADQS.USUBJID" Value="S001P003"/>
<ItemData ItemOID="IT.ADQS.TRTP" Value="TRT A"/>
<ItemData ItemOID="IT.ADQS.TRTPN" Value="1"/>
<ItemData ItemOID="IT.ADQS.ADT" Value="17623"/>
<ItemData ItemOID="IT.ADQS.ADY" Value="47"/>
<ItemData ItemOID="IT.ADQS.AVISIT" Value="6 WEEKS"/>
<ItemData ItemOID="IT.ADQS.AVISITN" Value="4"/>
<ItemData ItemOID="IT.ADQS.PARAM" Value="Maze Solution"/>
<ItemData ItemOID="IT.ADQS.PARAMCD" Value="ACITM10"/>
<ItemData ItemOID="IT.ADQS.PARAMN" Value="10"/>
<ItemData ItemOID="IT.ADQS.AVAL" Value="5"/>
<ItemData ItemOID="IT.ADQS.QSSEQ" Value="113"/>
<ItemData ItemOID="IT.ADQS.QSCAT" Value="ALZHEIMER'S DISEASE ASSESSMENT SCALE"/>
<ItemData ItemOID="IT.ADQS.QSORRES" Value="5"/>
<ItemData ItemOID="IT.ADQS.QSORRESU" Value="seconds"/>
<ItemData ItemOID="IT.ADQS.QSSTRESC" Value="5"/>
<ItemData ItemOID="IT.ADQS.QSSTRESU" Value="seconds"/>
<ItemData ItemOID="IT.ADQS.AGE" Value="38"/>
<ItemData ItemOID="IT.ADQS.SEX" Value="F"/>
<ItemData ItemOID="IT.ADQS.TRTEDT" Value="17617"/>
<ItemData ItemOID="IT.ADQS.TRTSDT" Value="17576"/>
<ItemData ItemOID="IT.ADQS.SAFFL" Value="Y"/>
</ItemGroupData>
<ItemGroupData ItemGroupOID="IG.ADQS" data:ItemGroupDataSeq="119">
<ItemData ItemOID="IT.ADQS.STUDYID" Value="SASCSTDEMODATA"/>
<ItemData ItemOID="IT.ADQS.USUBJID" Value="S001P003"/>
<ItemData ItemOID="IT.ADQS.TRTP" Value="TRT A"/>
<ItemData ItemOID="IT.ADQS.TRTPN" Value="1"/>
<ItemData ItemOID="IT.ADQS.ADT" Value="17577"/>
<ItemData ItemOID="IT.ADQS.ADY" Value="1"/>
<ItemData ItemOID="IT.ADQS.AVISIT" Value="RANDOMIZATION"/>
<ItemData ItemOID="IT.ADQS.AVISITN" Value="1"/>
<ItemData ItemOID="IT.ADQS.PARAM" Value="Spoken Language Ability"/>
<ItemData ItemOID="IT.ADQS.PARAMCD" Value="ACITM11"/>
<ItemData ItemOID="IT.ADQS.PARAMN" Value="11"/>
<ItemData ItemOID="IT.ADQS.AVAL" Value="0"/>
<ItemData ItemOID="IT.ADQS.QSSEQ" Value="126"/>
<ItemData ItemOID="IT.ADQS.QSCAT" Value="ALZHEIMER'S DISEASE ASSESSMENT SCALE"/>
<ItemData ItemOID="IT.ADQS.QSORRES" Value="0"/>
<ItemData ItemOID="IT.ADQS.QSSTRESC" Value="0"/>
<ItemData ItemOID="IT.ADQS.AGE" Value="38"/>
<ItemData ItemOID="IT.ADQS.SEX" Value="F"/>
<ItemData ItemOID="IT.ADQS.TRTEDT" Value="17617"/>
<ItemData ItemOID="IT.ADQS.TRTSDT" Value="17576"/>
<ItemData ItemOID="IT.ADQS.SAFFL" Value="Y"/>
</ItemGroupData>
<ItemGroupData ItemGroupOID="IG.ADQS" data:ItemGroupDataSeq="120">
<ItemData ItemOID="IT.ADQS.STUDYID" Value="SASCSTDEMODATA"/>
<ItemData ItemOID="IT.ADQS.USUBJID" Value="S001P003"/>
<ItemData ItemOID="IT.ADQS.TRTP" Value="TRT A"/>
<ItemData ItemOID="IT.ADQS.TRTPN" Value="1"/>
<ItemData ItemOID="IT.ADQS.ADT" Value="17589"/>
<ItemData ItemOID="IT.ADQS.ADY" Value="13"/>
<ItemData ItemOID="IT.ADQS.AVISIT" Value="2 WEEKS"/>
<ItemData ItemOID="IT.ADQS.AVISITN" Value="2"/>
<ItemData ItemOID="IT.ADQS.PARAM" Value="Spoken Language Ability"/>
<ItemData ItemOID="IT.ADQS.PARAMCD" Value="ACITM11"/>
<ItemData ItemOID="IT.ADQS.PARAMN" Value="11"/>
<ItemData ItemOID="IT.ADQS.AVAL" Value="0"/>
<ItemData ItemOID="IT.ADQS.QSSEQ" Value="127"/>
<ItemData ItemOID="IT.ADQS.QSCAT" Value="ALZHEIMER'S DISEASE ASSESSMENT SCALE"/>
<ItemData ItemOID="IT.ADQS.QSORRES" Value="0"/>
<ItemData ItemOID="IT.ADQS.QSSTRESC" Value="0"/>
<ItemData ItemOID="IT.ADQS.AGE" Value="38"/>
<ItemData ItemOID="IT.ADQS.SEX" Value="F"/>
<ItemData ItemOID="IT.ADQS.TRTEDT" Value="17617"/>
<ItemData ItemOID="IT.ADQS.TRTSDT" Value="17576"/>
<ItemData ItemOID="IT.ADQS.SAFFL" Value="Y"/>
</ItemGroupData>
<ItemGroupData ItemGroupOID="IG.ADQS" data:ItemGroupDataSeq="121">
<ItemData ItemOID="IT.ADQS.STUDYID" Value="SASCSTDEMODATA"/>
<ItemData ItemOID="IT.ADQS.USUBJID" Value="S001P003"/>
<ItemData ItemOID="IT.ADQS.TRTP" Value="TRT A"/>
<ItemData ItemOID="IT.ADQS.TRTPN" Value="1"/>
<ItemData ItemOID="IT.ADQS.ADT" Value="17604"/>
<ItemData ItemOID="IT.ADQS.ADY" Value="28"/>
<ItemData ItemOID="IT.ADQS.AVISIT" Value="4 WEEKS"/>
<ItemData ItemOID="IT.ADQS.AVISITN" Value="3"/>
<ItemData ItemOID="IT.ADQS.PARAM" Value="Spoken Language Ability"/>
<ItemData ItemOID="IT.ADQS.PARAMCD" Value="ACITM11"/>
<ItemData ItemOID="IT.ADQS.PARAMN" Value="11"/>
<ItemData ItemOID="IT.ADQS.AVAL" Value="0"/>
<ItemData ItemOID="IT.ADQS.QSSEQ" Value="128"/>
<ItemData ItemOID="IT.ADQS.QSCAT" Value="ALZHEIMER'S DISEASE ASSESSMENT SCALE"/>
<ItemData ItemOID="IT.ADQS.QSORRES" Value="0"/>
<ItemData ItemOID="IT.ADQS.QSSTRESC" Value="0"/>
<ItemData ItemOID="IT.ADQS.AGE" Value="38"/>
<ItemData ItemOID="IT.ADQS.SEX" Value="F"/>
<ItemData ItemOID="IT.ADQS.TRTEDT" Value="17617"/>
<ItemData ItemOID="IT.ADQS.TRTSDT" Value="17576"/>
<ItemData ItemOID="IT.ADQS.SAFFL" Value="Y"/>
</ItemGroupData>
<ItemGroupData ItemGroupOID="IG.ADQS" data:ItemGroupDataSeq="122">
<ItemData ItemOID="IT.ADQS.STUDYID" Value="SASCSTDEMODATA"/>
<ItemData ItemOID="IT.ADQS.USUBJID" Value="S001P003"/>
<ItemData ItemOID="IT.ADQS.TRTP" Value="TRT A"/>
<ItemData ItemOID="IT.ADQS.TRTPN" Value="1"/>
<ItemData ItemOID="IT.ADQS.ADT" Value="17623"/>
<ItemData ItemOID="IT.ADQS.ADY" Value="47"/>
<ItemData ItemOID="IT.ADQS.AVISIT" Value="6 WEEKS"/>
<ItemData ItemOID="IT.ADQS.AVISITN" Value="4"/>
<ItemData ItemOID="IT.ADQS.PARAM" Value="Spoken Language Ability"/>
<ItemData ItemOID="IT.ADQS.PARAMCD" Value="ACITM11"/>
<ItemData ItemOID="IT.ADQS.PARAMN" Value="11"/>
<ItemData ItemOID="IT.ADQS.AVAL" Value="0"/>
<ItemData ItemOID="IT.ADQS.QSSEQ" Value="129"/>
<ItemData ItemOID="IT.ADQS.QSCAT" Value="ALZHEIMER'S DISEASE ASSESSMENT SCALE"/>
<ItemData ItemOID="IT.ADQS.QSORRES" Value="0"/>
<ItemData ItemOID="IT.ADQS.QSSTRESC" Value="0"/>
<ItemData ItemOID="IT.ADQS.AGE" Value="38"/>
<ItemData ItemOID="IT.ADQS.SEX" Value="F"/>
<ItemData ItemOID="IT.ADQS.TRTEDT" Value="17617"/>
<ItemData ItemOID="IT.ADQS.TRTSDT" Value="17576"/>
<ItemData ItemOID="IT.ADQS.SAFFL" Value="Y"/>
</ItemGroupData>
<ItemGroupData ItemGroupOID="IG.ADQS" data:ItemGroupDataSeq="123">
<ItemData ItemOID="IT.ADQS.STUDYID" Value="SASCSTDEMODATA"/>
<ItemData ItemOID="IT.ADQS.USUBJID" Value="S001P003"/>
<ItemData ItemOID="IT.ADQS.TRTP" Value="TRT A"/>
<ItemData ItemOID="IT.ADQS.TRTPN" Value="1"/>
<ItemData ItemOID="IT.ADQS.ADT" Value="17577"/>
<ItemData ItemOID="IT.ADQS.ADY" Value="1"/>
<ItemData ItemOID="IT.ADQS.AVISIT" Value="RANDOMIZATION"/>
<ItemData ItemOID="IT.ADQS.AVISITN" Value="1"/>
<ItemData ItemOID="IT.ADQS.PARAM" Value="Comprehension of Spoken Language"/>
<ItemData ItemOID="IT.ADQS.PARAMCD" Value="ACITM12"/>
<ItemData ItemOID="IT.ADQS.PARAMN" Value="12"/>
<ItemData ItemOID="IT.ADQS.AVAL" Value="0"/>
<ItemData ItemOID="IT.ADQS.QSSEQ" Value="91"/>
<ItemData ItemOID="IT.ADQS.QSCAT" Value="ALZHEIMER'S DISEASE ASSESSMENT SCALE"/>
<ItemData ItemOID="IT.ADQS.QSORRES" Value="0"/>
<ItemData ItemOID="IT.ADQS.QSSTRESC" Value="0"/>
<ItemData ItemOID="IT.ADQS.AGE" Value="38"/>
<ItemData ItemOID="IT.ADQS.SEX" Value="F"/>
<ItemData ItemOID="IT.ADQS.TRTEDT" Value="17617"/>
<ItemData ItemOID="IT.ADQS.TRTSDT" Value="17576"/>
<ItemData ItemOID="IT.ADQS.SAFFL" Value="Y"/>
</ItemGroupData>
<ItemGroupData ItemGroupOID="IG.ADQS" data:ItemGroupDataSeq="124">
<ItemData ItemOID="IT.ADQS.STUDYID" Value="SASCSTDEMODATA"/>
<ItemData ItemOID="IT.ADQS.USUBJID" Value="S001P003"/>
<ItemData ItemOID="IT.ADQS.TRTP" Value="TRT A"/>
<ItemData ItemOID="IT.ADQS.TRTPN" Value="1"/>
<ItemData ItemOID="IT.ADQS.ADT" Value="17589"/>
<ItemData ItemOID="IT.ADQS.ADY" Value="13"/>
<ItemData ItemOID="IT.ADQS.AVISIT" Value="2 WEEKS"/>
<ItemData ItemOID="IT.ADQS.AVISITN" Value="2"/>
<ItemData ItemOID="IT.ADQS.PARAM" Value="Comprehension of Spoken Language"/>
<ItemData ItemOID="IT.ADQS.PARAMCD" Value="ACITM12"/>
<ItemData ItemOID="IT.ADQS.PARAMN" Value="12"/>
<ItemData ItemOID="IT.ADQS.AVAL" Value="0"/>
<ItemData ItemOID="IT.ADQS.QSSEQ" Value="92"/>
<ItemData ItemOID="IT.ADQS.QSCAT" Value="ALZHEIMER'S DISEASE ASSESSMENT SCALE"/>
<ItemData ItemOID="IT.ADQS.QSORRES" Value="0"/>
<ItemData ItemOID="IT.ADQS.QSSTRESC" Value="0"/>
<ItemData ItemOID="IT.ADQS.AGE" Value="38"/>
<ItemData ItemOID="IT.ADQS.SEX" Value="F"/>
<ItemData ItemOID="IT.ADQS.TRTEDT" Value="17617"/>
<ItemData ItemOID="IT.ADQS.TRTSDT" Value="17576"/>
<ItemData ItemOID="IT.ADQS.SAFFL" Value="Y"/>
</ItemGroupData>
<ItemGroupData ItemGroupOID="IG.ADQS" data:ItemGroupDataSeq="125">
<ItemData ItemOID="IT.ADQS.STUDYID" Value="SASCSTDEMODATA"/>
<ItemData ItemOID="IT.ADQS.USUBJID" Value="S001P003"/>
<ItemData ItemOID="IT.ADQS.TRTP" Value="TRT A"/>
<ItemData ItemOID="IT.ADQS.TRTPN" Value="1"/>
<ItemData ItemOID="IT.ADQS.ADT" Value="17604"/>
<ItemData ItemOID="IT.ADQS.ADY" Value="28"/>
<ItemData ItemOID="IT.ADQS.AVISIT" Value="4 WEEKS"/>
<ItemData ItemOID="IT.ADQS.AVISITN" Value="3"/>
<ItemData ItemOID="IT.ADQS.PARAM" Value="Comprehension of Spoken Language"/>
<ItemData ItemOID="IT.ADQS.PARAMCD" Value="ACITM12"/>
<ItemData ItemOID="IT.ADQS.PARAMN" Value="12"/>
<ItemData ItemOID="IT.ADQS.AVAL" Value="0"/>
<ItemData ItemOID="IT.ADQS.QSSEQ" Value="93"/>
<ItemData ItemOID="IT.ADQS.QSCAT" Value="ALZHEIMER'S DISEASE ASSESSMENT SCALE"/>
<ItemData ItemOID="IT.ADQS.QSORRES" Value="0"/>
<ItemData ItemOID="IT.ADQS.QSSTRESC" Value="0"/>
<ItemData ItemOID="IT.ADQS.AGE" Value="38"/>
<ItemData ItemOID="IT.ADQS.SEX" Value="F"/>
<ItemData ItemOID="IT.ADQS.TRTEDT" Value="17617"/>
<ItemData ItemOID="IT.ADQS.TRTSDT" Value="17576"/>
<ItemData ItemOID="IT.ADQS.SAFFL" Value="Y"/>
</ItemGroupData>
<ItemGroupData ItemGroupOID="IG.ADQS" data:ItemGroupDataSeq="126">
<ItemData ItemOID="IT.ADQS.STUDYID" Value="SASCSTDEMODATA"/>
<ItemData ItemOID="IT.ADQS.USUBJID" Value="S001P003"/>
<ItemData ItemOID="IT.ADQS.TRTP" Value="TRT A"/>
<ItemData ItemOID="IT.ADQS.TRTPN" Value="1"/>
<ItemData ItemOID="IT.ADQS.ADT" Value="17623"/>
<ItemData ItemOID="IT.ADQS.ADY" Value="47"/>
<ItemData ItemOID="IT.ADQS.AVISIT" Value="6 WEEKS"/>
<ItemData ItemOID="IT.ADQS.AVISITN" Value="4"/>
<ItemData ItemOID="IT.ADQS.PARAM" Value="Comprehension of Spoken Language"/>
<ItemData ItemOID="IT.ADQS.PARAMCD" Value="ACITM12"/>
<ItemData ItemOID="IT.ADQS.PARAMN" Value="12"/>
<ItemData ItemOID="IT.ADQS.AVAL" Value="0"/>
<ItemData ItemOID="IT.ADQS.QSSEQ" Value="94"/>
<ItemData ItemOID="IT.ADQS.QSCAT" Value="ALZHEIMER'S DISEASE ASSESSMENT SCALE"/>
<ItemData ItemOID="IT.ADQS.QSORRES" Value="0"/>
<ItemData ItemOID="IT.ADQS.QSSTRESC" Value="0"/>
<ItemData ItemOID="IT.ADQS.AGE" Value="38"/>
<ItemData ItemOID="IT.ADQS.SEX" Value="F"/>
<ItemData ItemOID="IT.ADQS.TRTEDT" Value="17617"/>
<ItemData ItemOID="IT.ADQS.TRTSDT" Value="17576"/>
<ItemData ItemOID="IT.ADQS.SAFFL" Value="Y"/>
</ItemGroupData>
<ItemGroupData ItemGroupOID="IG.ADQS" data:ItemGroupDataSeq="127">
<ItemData ItemOID="IT.ADQS.STUDYID" Value="SASCSTDEMODATA"/>
<ItemData ItemOID="IT.ADQS.USUBJID" Value="S001P003"/>
<ItemData ItemOID="IT.ADQS.TRTP" Value="TRT A"/>
<ItemData ItemOID="IT.ADQS.TRTPN" Value="1"/>
<ItemData ItemOID="IT.ADQS.ADT" Value="17577"/>
<ItemData ItemOID="IT.ADQS.ADY" Value="1"/>
<ItemData ItemOID="IT.ADQS.AVISIT" Value="RANDOMIZATION"/>
<ItemData ItemOID="IT.ADQS.AVISITN" Value="1"/>
<ItemData ItemOID="IT.ADQS.PARAM" Value="Word Finding Difficulty in Spontaneous Speech"/>
<ItemData ItemOID="IT.ADQS.PARAMCD" Value="ACITM13"/>
<ItemData ItemOID="IT.ADQS.PARAMN" Value="13"/>
<ItemData ItemOID="IT.ADQS.AVAL" Value="0"/>
<ItemData ItemOID="IT.ADQS.QSSEQ" Value="130"/>
<ItemData ItemOID="IT.ADQS.QSCAT" Value="ALZHEIMER'S DISEASE ASSESSMENT SCALE"/>
<ItemData ItemOID="IT.ADQS.QSORRES" Value="0"/>
<ItemData ItemOID="IT.ADQS.QSSTRESC" Value="0"/>
<ItemData ItemOID="IT.ADQS.AGE" Value="38"/>
<ItemData ItemOID="IT.ADQS.SEX" Value="F"/>
<ItemData ItemOID="IT.ADQS.TRTEDT" Value="17617"/>
<ItemData ItemOID="IT.ADQS.TRTSDT" Value="17576"/>
<ItemData ItemOID="IT.ADQS.SAFFL" Value="Y"/>
</ItemGroupData>
<ItemGroupData ItemGroupOID="IG.ADQS" data:ItemGroupDataSeq="128">
<ItemData ItemOID="IT.ADQS.STUDYID" Value="SASCSTDEMODATA"/>
<ItemData ItemOID="IT.ADQS.USUBJID" Value="S001P003"/>
<ItemData ItemOID="IT.ADQS.TRTP" Value="TRT A"/>
<ItemData ItemOID="IT.ADQS.TRTPN" Value="1"/>
<ItemData ItemOID="IT.ADQS.ADT" Value="17589"/>
<ItemData ItemOID="IT.ADQS.ADY" Value="13"/>
<ItemData ItemOID="IT.ADQS.AVISIT" Value="2 WEEKS"/>
<ItemData ItemOID="IT.ADQS.AVISITN" Value="2"/>
<ItemData ItemOID="IT.ADQS.PARAM" Value="Word Finding Difficulty in Spontaneous Speech"/>
<ItemData ItemOID="IT.ADQS.PARAMCD" Value="ACITM13"/>
<ItemData ItemOID="IT.ADQS.PARAMN" Value="13"/>
<ItemData ItemOID="IT.ADQS.AVAL" Value="0"/>
<ItemData ItemOID="IT.ADQS.QSSEQ" Value="131"/>
<ItemData ItemOID="IT.ADQS.QSCAT" Value="ALZHEIMER'S DISEASE ASSESSMENT SCALE"/>
<ItemData ItemOID="IT.ADQS.QSORRES" Value="0"/>
<ItemData ItemOID="IT.ADQS.QSSTRESC" Value="0"/>
<ItemData ItemOID="IT.ADQS.AGE" Value="38"/>
<ItemData ItemOID="IT.ADQS.SEX" Value="F"/>
<ItemData ItemOID="IT.ADQS.TRTEDT" Value="17617"/>
<ItemData ItemOID="IT.ADQS.TRTSDT" Value="17576"/>
<ItemData ItemOID="IT.ADQS.SAFFL" Value="Y"/>
</ItemGroupData>
<ItemGroupData ItemGroupOID="IG.ADQS" data:ItemGroupDataSeq="129">
<ItemData ItemOID="IT.ADQS.STUDYID" Value="SASCSTDEMODATA"/>
<ItemData ItemOID="IT.ADQS.USUBJID" Value="S001P003"/>
<ItemData ItemOID="IT.ADQS.TRTP" Value="TRT A"/>
<ItemData ItemOID="IT.ADQS.TRTPN" Value="1"/>
<ItemData ItemOID="IT.ADQS.ADT" Value="17604"/>
<ItemData ItemOID="IT.ADQS.ADY" Value="28"/>
<ItemData ItemOID="IT.ADQS.AVISIT" Value="4 WEEKS"/>
<ItemData ItemOID="IT.ADQS.AVISITN" Value="3"/>
<ItemData ItemOID="IT.ADQS.PARAM" Value="Word Finding Difficulty in Spontaneous Speech"/>
<ItemData ItemOID="IT.ADQS.PARAMCD" Value="ACITM13"/>
<ItemData ItemOID="IT.ADQS.PARAMN" Value="13"/>
<ItemData ItemOID="IT.ADQS.AVAL" Value="0"/>
<ItemData ItemOID="IT.ADQS.QSSEQ" Value="132"/>
<ItemData ItemOID="IT.ADQS.QSCAT" Value="ALZHEIMER'S DISEASE ASSESSMENT SCALE"/>
<ItemData ItemOID="IT.ADQS.QSORRES" Value="0"/>
<ItemData ItemOID="IT.ADQS.QSSTRESC" Value="0"/>
<ItemData ItemOID="IT.ADQS.AGE" Value="38"/>
<ItemData ItemOID="IT.ADQS.SEX" Value="F"/>
<ItemData ItemOID="IT.ADQS.TRTEDT" Value="17617"/>
<ItemData ItemOID="IT.ADQS.TRTSDT" Value="17576"/>
<ItemData ItemOID="IT.ADQS.SAFFL" Value="Y"/>
</ItemGroupData>
<ItemGroupData ItemGroupOID="IG.ADQS" data:ItemGroupDataSeq="130">
<ItemData ItemOID="IT.ADQS.STUDYID" Value="SASCSTDEMODATA"/>
<ItemData ItemOID="IT.ADQS.USUBJID" Value="S001P003"/>
<ItemData ItemOID="IT.ADQS.TRTP" Value="TRT A"/>
<ItemData ItemOID="IT.ADQS.TRTPN" Value="1"/>
<ItemData ItemOID="IT.ADQS.ADT" Value="17623"/>
<ItemData ItemOID="IT.ADQS.ADY" Value="47"/>
<ItemData ItemOID="IT.ADQS.AVISIT" Value="6 WEEKS"/>
<ItemData ItemOID="IT.ADQS.AVISITN" Value="4"/>
<ItemData ItemOID="IT.ADQS.PARAM" Value="Word Finding Difficulty in Spontaneous Speech"/>
<ItemData ItemOID="IT.ADQS.PARAMCD" Value="ACITM13"/>
<ItemData ItemOID="IT.ADQS.PARAMN" Value="13"/>
<ItemData ItemOID="IT.ADQS.AVAL" Value="0"/>
<ItemData ItemOID="IT.ADQS.QSSEQ" Value="133"/>
<ItemData ItemOID="IT.ADQS.QSCAT" Value="ALZHEIMER'S DISEASE ASSESSMENT SCALE"/>
<ItemData ItemOID="IT.ADQS.QSORRES" Value="0"/>
<ItemData ItemOID="IT.ADQS.QSSTRESC" Value="0"/>
<ItemData ItemOID="IT.ADQS.AGE" Value="38"/>
<ItemData ItemOID="IT.ADQS.SEX" Value="F"/>
<ItemData ItemOID="IT.ADQS.TRTEDT" Value="17617"/>
<ItemData ItemOID="IT.ADQS.TRTSDT" Value="17576"/>
<ItemData ItemOID="IT.ADQS.SAFFL" Value="Y"/>
</ItemGroupData>
<ItemGroupData ItemGroupOID="IG.ADQS" data:ItemGroupDataSeq="131">
<ItemData ItemOID="IT.ADQS.STUDYID" Value="SASCSTDEMODATA"/>
<ItemData ItemOID="IT.ADQS.USUBJID" Value="S001P003"/>
<ItemData ItemOID="IT.ADQS.TRTP" Value="TRT A"/>
<ItemData ItemOID="IT.ADQS.TRTPN" Value="1"/>
<ItemData ItemOID="IT.ADQS.ADT" Value="17577"/>
<ItemData ItemOID="IT.ADQS.ADY" Value="1"/>
<ItemData ItemOID="IT.ADQS.AVISIT" Value="RANDOMIZATION"/>
<ItemData ItemOID="IT.ADQS.AVISITN" Value="1"/>
<ItemData ItemOID="IT.ADQS.PARAM" Value="Recall of Test Instructions"/>
<ItemData ItemOID="IT.ADQS.PARAMCD" Value="ACITM14"/>
<ItemData ItemOID="IT.ADQS.PARAMN" Value="14"/>
<ItemData ItemOID="IT.ADQS.AVAL" Value="0"/>
<ItemData ItemOID="IT.ADQS.QSSEQ" Value="122"/>
<ItemData ItemOID="IT.ADQS.QSCAT" Value="ALZHEIMER'S DISEASE ASSESSMENT SCALE"/>
<ItemData ItemOID="IT.ADQS.QSORRES" Value="0"/>
<ItemData ItemOID="IT.ADQS.QSSTRESC" Value="0"/>
<ItemData ItemOID="IT.ADQS.AGE" Value="38"/>
<ItemData ItemOID="IT.ADQS.SEX" Value="F"/>
<ItemData ItemOID="IT.ADQS.TRTEDT" Value="17617"/>
<ItemData ItemOID="IT.ADQS.TRTSDT" Value="17576"/>
<ItemData ItemOID="IT.ADQS.SAFFL" Value="Y"/>
</ItemGroupData>
<ItemGroupData ItemGroupOID="IG.ADQS" data:ItemGroupDataSeq="132">
<ItemData ItemOID="IT.ADQS.STUDYID" Value="SASCSTDEMODATA"/>
<ItemData ItemOID="IT.ADQS.USUBJID" Value="S001P003"/>
<ItemData ItemOID="IT.ADQS.TRTP" Value="TRT A"/>
<ItemData ItemOID="IT.ADQS.TRTPN" Value="1"/>
<ItemData ItemOID="IT.ADQS.ADT" Value="17589"/>
<ItemData ItemOID="IT.ADQS.ADY" Value="13"/>
<ItemData ItemOID="IT.ADQS.AVISIT" Value="2 WEEKS"/>
<ItemData ItemOID="IT.ADQS.AVISITN" Value="2"/>
<ItemData ItemOID="IT.ADQS.PARAM" Value="Recall of Test Instructions"/>
<ItemData ItemOID="IT.ADQS.PARAMCD" Value="ACITM14"/>
<ItemData ItemOID="IT.ADQS.PARAMN" Value="14"/>
<ItemData ItemOID="IT.ADQS.AVAL" Value="0"/>
<ItemData ItemOID="IT.ADQS.QSSEQ" Value="123"/>
<ItemData ItemOID="IT.ADQS.QSCAT" Value="ALZHEIMER'S DISEASE ASSESSMENT SCALE"/>
<ItemData ItemOID="IT.ADQS.QSORRES" Value="0"/>
<ItemData ItemOID="IT.ADQS.QSSTRESC" Value="0"/>
<ItemData ItemOID="IT.ADQS.AGE" Value="38"/>
<ItemData ItemOID="IT.ADQS.SEX" Value="F"/>
<ItemData ItemOID="IT.ADQS.TRTEDT" Value="17617"/>
<ItemData ItemOID="IT.ADQS.TRTSDT" Value="17576"/>
<ItemData ItemOID="IT.ADQS.SAFFL" Value="Y"/>
</ItemGroupData>
<ItemGroupData ItemGroupOID="IG.ADQS" data:ItemGroupDataSeq="133">
<ItemData ItemOID="IT.ADQS.STUDYID" Value="SASCSTDEMODATA"/>
<ItemData ItemOID="IT.ADQS.USUBJID" Value="S001P003"/>
<ItemData ItemOID="IT.ADQS.TRTP" Value="TRT A"/>
<ItemData ItemOID="IT.ADQS.TRTPN" Value="1"/>
<ItemData ItemOID="IT.ADQS.ADT" Value="17604"/>
<ItemData ItemOID="IT.ADQS.ADY" Value="28"/>
<ItemData ItemOID="IT.ADQS.AVISIT" Value="4 WEEKS"/>
<ItemData ItemOID="IT.ADQS.AVISITN" Value="3"/>
<ItemData ItemOID="IT.ADQS.PARAM" Value="Recall of Test Instructions"/>
<ItemData ItemOID="IT.ADQS.PARAMCD" Value="ACITM14"/>
<ItemData ItemOID="IT.ADQS.PARAMN" Value="14"/>
<ItemData ItemOID="IT.ADQS.AVAL" Value="0"/>
<ItemData ItemOID="IT.ADQS.QSSEQ" Value="124"/>
<ItemData ItemOID="IT.ADQS.QSCAT" Value="ALZHEIMER'S DISEASE ASSESSMENT SCALE"/>
<ItemData ItemOID="IT.ADQS.QSORRES" Value="0"/>
<ItemData ItemOID="IT.ADQS.QSSTRESC" Value="0"/>
<ItemData ItemOID="IT.ADQS.AGE" Value="38"/>
<ItemData ItemOID="IT.ADQS.SEX" Value="F"/>
<ItemData ItemOID="IT.ADQS.TRTEDT" Value="17617"/>
<ItemData ItemOID="IT.ADQS.TRTSDT" Value="17576"/>
<ItemData ItemOID="IT.ADQS.SAFFL" Value="Y"/>
</ItemGroupData>
<ItemGroupData ItemGroupOID="IG.ADQS" data:ItemGroupDataSeq="134">
<ItemData ItemOID="IT.ADQS.STUDYID" Value="SASCSTDEMODATA"/>
<ItemData ItemOID="IT.ADQS.USUBJID" Value="S001P003"/>
<ItemData ItemOID="IT.ADQS.TRTP" Value="TRT A"/>
<ItemData ItemOID="IT.ADQS.TRTPN" Value="1"/>
<ItemData ItemOID="IT.ADQS.ADT" Value="17623"/>
<ItemData ItemOID="IT.ADQS.ADY" Value="47"/>
<ItemData ItemOID="IT.ADQS.AVISIT" Value="6 WEEKS"/>
<ItemData ItemOID="IT.ADQS.AVISITN" Value="4"/>
<ItemData ItemOID="IT.ADQS.PARAM" Value="Recall of Test Instructions"/>
<ItemData ItemOID="IT.ADQS.PARAMCD" Value="ACITM14"/>
<ItemData ItemOID="IT.ADQS.PARAMN" Value="14"/>
<ItemData ItemOID="IT.ADQS.AVAL" Value="0"/>
<ItemData ItemOID="IT.ADQS.QSSEQ" Value="125"/>
<ItemData ItemOID="IT.ADQS.QSCAT" Value="ALZHEIMER'S DISEASE ASSESSMENT SCALE"/>
<ItemData ItemOID="IT.ADQS.QSORRES" Value="0"/>
<ItemData ItemOID="IT.ADQS.QSSTRESC" Value="0"/>
<ItemData ItemOID="IT.ADQS.AGE" Value="38"/>
<ItemData ItemOID="IT.ADQS.SEX" Value="F"/>
<ItemData ItemOID="IT.ADQS.TRTEDT" Value="17617"/>
<ItemData ItemOID="IT.ADQS.TRTSDT" Value="17576"/>
<ItemData ItemOID="IT.ADQS.SAFFL" Value="Y"/>
</ItemGroupData>
<ItemGroupData ItemGroupOID="IG.ADQS" data:ItemGroupDataSeq="135">
<ItemData ItemOID="IT.ADQS.STUDYID" Value="SASCSTDEMODATA"/>
<ItemData ItemOID="IT.ADQS.USUBJID" Value="S001P003"/>
<ItemData ItemOID="IT.ADQS.TRTP" Value="TRT A"/>
<ItemData ItemOID="IT.ADQS.TRTPN" Value="1"/>
<ItemData ItemOID="IT.ADQS.ADT" Value="17577"/>
<ItemData ItemOID="IT.ADQS.ADY" Value="1"/>
<ItemData ItemOID="IT.ADQS.AVISIT" Value="RANDOMIZATION"/>
<ItemData ItemOID="IT.ADQS.AVISITN" Value="1"/>
<ItemData ItemOID="IT.ADQS.PARAM" Value="Adas-Cog(11) Subscore"/>
<ItemData ItemOID="IT.ADQS.PARAMCD" Value="ACTOT"/>
<ItemData ItemOID="IT.ADQS.PARAMN" Value="1"/>
<ItemData ItemOID="IT.ADQS.AVAL" Value="3"/>
<ItemData ItemOID="IT.ADQS.QSSEQ" Value="79"/>
<ItemData ItemOID="IT.ADQS.QSCAT" Value="ALZHEIMER'S DISEASE ASSESSMENT SCALE"/>
<ItemData ItemOID="IT.ADQS.QSSTRESC" Value="3"/>
<ItemData ItemOID="IT.ADQS.AGE" Value="38"/>
<ItemData ItemOID="IT.ADQS.SEX" Value="F"/>
<ItemData ItemOID="IT.ADQS.TRTEDT" Value="17617"/>
<ItemData ItemOID="IT.ADQS.TRTSDT" Value="17576"/>
<ItemData ItemOID="IT.ADQS.SAFFL" Value="Y"/>
</ItemGroupData>
<ItemGroupData ItemGroupOID="IG.ADQS" data:ItemGroupDataSeq="136">
<ItemData ItemOID="IT.ADQS.STUDYID" Value="SASCSTDEMODATA"/>
<ItemData ItemOID="IT.ADQS.USUBJID" Value="S001P003"/>
<ItemData ItemOID="IT.ADQS.TRTP" Value="TRT A"/>
<ItemData ItemOID="IT.ADQS.TRTPN" Value="1"/>
<ItemData ItemOID="IT.ADQS.ADT" Value="17589"/>
<ItemData ItemOID="IT.ADQS.ADY" Value="13"/>
<ItemData ItemOID="IT.ADQS.AVISIT" Value="2 WEEKS"/>
<ItemData ItemOID="IT.ADQS.AVISITN" Value="2"/>
<ItemData ItemOID="IT.ADQS.PARAM" Value="Adas-Cog(11) Subscore"/>
<ItemData ItemOID="IT.ADQS.PARAMCD" Value="ACTOT"/>
<ItemData ItemOID="IT.ADQS.PARAMN" Value="1"/>
<ItemData ItemOID="IT.ADQS.AVAL" Value="2"/>
<ItemData ItemOID="IT.ADQS.QSSEQ" Value="80"/>
<ItemData ItemOID="IT.ADQS.QSCAT" Value="ALZHEIMER'S DISEASE ASSESSMENT SCALE"/>
<ItemData ItemOID="IT.ADQS.QSSTRESC" Value="2"/>
<ItemData ItemOID="IT.ADQS.AGE" Value="38"/>
<ItemData ItemOID="IT.ADQS.SEX" Value="F"/>
<ItemData ItemOID="IT.ADQS.TRTEDT" Value="17617"/>
<ItemData ItemOID="IT.ADQS.TRTSDT" Value="17576"/>
<ItemData ItemOID="IT.ADQS.SAFFL" Value="Y"/>
</ItemGroupData>
<ItemGroupData ItemGroupOID="IG.ADQS" data:ItemGroupDataSeq="137">
<ItemData ItemOID="IT.ADQS.STUDYID" Value="SASCSTDEMODATA"/>
<ItemData ItemOID="IT.ADQS.USUBJID" Value="S001P003"/>
<ItemData ItemOID="IT.ADQS.TRTP" Value="TRT A"/>
<ItemData ItemOID="IT.ADQS.TRTPN" Value="1"/>
<ItemData ItemOID="IT.ADQS.ADT" Value="17604"/>
<ItemData ItemOID="IT.ADQS.ADY" Value="28"/>
<ItemData ItemOID="IT.ADQS.AVISIT" Value="4 WEEKS"/>
<ItemData ItemOID="IT.ADQS.AVISITN" Value="3"/>
<ItemData ItemOID="IT.ADQS.PARAM" Value="Adas-Cog(11) Subscore"/>
<ItemData ItemOID="IT.ADQS.PARAMCD" Value="ACTOT"/>
<ItemData ItemOID="IT.ADQS.PARAMN" Value="1"/>
<ItemData ItemOID="IT.ADQS.AVAL" Value="4"/>
<ItemData ItemOID="IT.ADQS.QSSEQ" Value="81"/>
<ItemData ItemOID="IT.ADQS.QSCAT" Value="ALZHEIMER'S DISEASE ASSESSMENT SCALE"/>
<ItemData ItemOID="IT.ADQS.QSSTRESC" Value="4"/>
<ItemData ItemOID="IT.ADQS.AGE" Value="38"/>
<ItemData ItemOID="IT.ADQS.SEX" Value="F"/>
<ItemData ItemOID="IT.ADQS.TRTEDT" Value="17617"/>
<ItemData ItemOID="IT.ADQS.TRTSDT" Value="17576"/>
<ItemData ItemOID="IT.ADQS.SAFFL" Value="Y"/>
</ItemGroupData>
<ItemGroupData ItemGroupOID="IG.ADQS" data:ItemGroupDataSeq="138">
<ItemData ItemOID="IT.ADQS.STUDYID" Value="SASCSTDEMODATA"/>
<ItemData ItemOID="IT.ADQS.USUBJID" Value="S001P003"/>
<ItemData ItemOID="IT.ADQS.TRTP" Value="TRT A"/>
<ItemData ItemOID="IT.ADQS.TRTPN" Value="1"/>
<ItemData ItemOID="IT.ADQS.ADT" Value="17623"/>
<ItemData ItemOID="IT.ADQS.ADY" Value="47"/>
<ItemData ItemOID="IT.ADQS.AVISIT" Value="6 WEEKS"/>
<ItemData ItemOID="IT.ADQS.AVISITN" Value="4"/>
<ItemData ItemOID="IT.ADQS.PARAM" Value="Adas-Cog(11) Subscore"/>
<ItemData ItemOID="IT.ADQS.PARAMCD" Value="ACTOT"/>
<ItemData ItemOID="IT.ADQS.PARAMN" Value="1"/>
<ItemData ItemOID="IT.ADQS.AVAL" Value="3"/>
<ItemData ItemOID="IT.ADQS.QSSEQ" Value="82"/>
<ItemData ItemOID="IT.ADQS.QSCAT" Value="ALZHEIMER'S DISEASE ASSESSMENT SCALE"/>
<ItemData ItemOID="IT.ADQS.QSSTRESC" Value="3"/>
<ItemData ItemOID="IT.ADQS.AGE" Value="38"/>
<ItemData ItemOID="IT.ADQS.SEX" Value="F"/>
<ItemData ItemOID="IT.ADQS.TRTEDT" Value="17617"/>
<ItemData ItemOID="IT.ADQS.TRTSDT" Value="17576"/>
<ItemData ItemOID="IT.ADQS.SAFFL" Value="Y"/>
</ItemGroupData>
<ItemGroupData ItemGroupOID="IG.ADQS" data:ItemGroupDataSeq="139">
<ItemData ItemOID="IT.ADQS.STUDYID" Value="SASCSTDEMODATA"/>
<ItemData ItemOID="IT.ADQS.USUBJID" Value="S001P003"/>
<ItemData ItemOID="IT.ADQS.TRTP" Value="TRT A"/>
<ItemData ItemOID="IT.ADQS.TRTPN" Value="1"/>
<ItemData ItemOID="IT.ADQS.ADT" Value="17589"/>
<ItemData ItemOID="IT.ADQS.ADY" Value="13"/>
<ItemData ItemOID="IT.ADQS.AVISIT" Value="2 WEEKS"/>
<ItemData ItemOID="IT.ADQS.AVISITN" Value="2"/>
<ItemData ItemOID="IT.ADQS.PARAM" Value="Extent of Change, if Any, Since Baseline"/>
<ItemData ItemOID="IT.ADQS.PARAMCD" Value="CIBIC"/>
<ItemData ItemOID="IT.ADQS.PARAMN" Value="1"/>
<ItemData ItemOID="IT.ADQS.AVAL" Value="4"/>
<ItemData ItemOID="IT.ADQS.QSSEQ" Value="103"/>
<ItemData ItemOID="IT.ADQS.QSCAT" Value="CLINICIAN'S IMPRESSION OF CHANGE(CIBIC+)"/>
<ItemData ItemOID="IT.ADQS.QSORRES" Value="NO CHANGE"/>
<ItemData ItemOID="IT.ADQS.QSSTRESC" Value="4"/>
<ItemData ItemOID="IT.ADQS.AGE" Value="38"/>
<ItemData ItemOID="IT.ADQS.SEX" Value="F"/>
<ItemData ItemOID="IT.ADQS.TRTEDT" Value="17617"/>
<ItemData ItemOID="IT.ADQS.TRTSDT" Value="17576"/>
<ItemData ItemOID="IT.ADQS.SAFFL" Value="Y"/>
</ItemGroupData>
<ItemGroupData ItemGroupOID="IG.ADQS" data:ItemGroupDataSeq="140">
<ItemData ItemOID="IT.ADQS.STUDYID" Value="SASCSTDEMODATA"/>
<ItemData ItemOID="IT.ADQS.USUBJID" Value="S001P003"/>
<ItemData ItemOID="IT.ADQS.TRTP" Value="TRT A"/>
<ItemData ItemOID="IT.ADQS.TRTPN" Value="1"/>
<ItemData ItemOID="IT.ADQS.ADT" Value="17604"/>
<ItemData ItemOID="IT.ADQS.ADY" Value="28"/>
<ItemData ItemOID="IT.ADQS.AVISIT" Value="4 WEEKS"/>
<ItemData ItemOID="IT.ADQS.AVISITN" Value="3"/>
<ItemData ItemOID="IT.ADQS.PARAM" Value="Extent of Change, if Any, Since Baseline"/>
<ItemData ItemOID="IT.ADQS.PARAMCD" Value="CIBIC"/>
<ItemData ItemOID="IT.ADQS.PARAMN" Value="1"/>
<ItemData ItemOID="IT.ADQS.AVAL" Value="4"/>
<ItemData ItemOID="IT.ADQS.QSSEQ" Value="104"/>
<ItemData ItemOID="IT.ADQS.QSCAT" Value="CLINICIAN'S IMPRESSION OF CHANGE(CIBIC+)"/>
<ItemData ItemOID="IT.ADQS.QSORRES" Value="NO CHANGE"/>
<ItemData ItemOID="IT.ADQS.QSSTRESC" Value="4"/>
<ItemData ItemOID="IT.ADQS.AGE" Value="38"/>
<ItemData ItemOID="IT.ADQS.SEX" Value="F"/>
<ItemData ItemOID="IT.ADQS.TRTEDT" Value="17617"/>
<ItemData ItemOID="IT.ADQS.TRTSDT" Value="17576"/>
<ItemData ItemOID="IT.ADQS.SAFFL" Value="Y"/>
</ItemGroupData>
<ItemGroupData ItemGroupOID="IG.ADQS" data:ItemGroupDataSeq="141">
<ItemData ItemOID="IT.ADQS.STUDYID" Value="SASCSTDEMODATA"/>
<ItemData ItemOID="IT.ADQS.USUBJID" Value="S001P003"/>
<ItemData ItemOID="IT.ADQS.TRTP" Value="TRT A"/>
<ItemData ItemOID="IT.ADQS.TRTPN" Value="1"/>
<ItemData ItemOID="IT.ADQS.ADT" Value="17623"/>
<ItemData ItemOID="IT.ADQS.ADY" Value="47"/>
<ItemData ItemOID="IT.ADQS.AVISIT" Value="6 WEEKS"/>
<ItemData ItemOID="IT.ADQS.AVISITN" Value="4"/>
<ItemData ItemOID="IT.ADQS.PARAM" Value="Extent of Change, if Any, Since Baseline"/>
<ItemData ItemOID="IT.ADQS.PARAMCD" Value="CIBIC"/>
<ItemData ItemOID="IT.ADQS.PARAMN" Value="1"/>
<ItemData ItemOID="IT.ADQS.AVAL" Value="4"/>
<ItemData ItemOID="IT.ADQS.QSSEQ" Value="105"/>
<ItemData ItemOID="IT.ADQS.QSCAT" Value="CLINICIAN'S IMPRESSION OF CHANGE(CIBIC+)"/>
<ItemData ItemOID="IT.ADQS.QSORRES" Value="NO CHANGE"/>
<ItemData ItemOID="IT.ADQS.QSSTRESC" Value="4"/>
<ItemData ItemOID="IT.ADQS.AGE" Value="38"/>
<ItemData ItemOID="IT.ADQS.SEX" Value="F"/>
<ItemData ItemOID="IT.ADQS.TRTEDT" Value="17617"/>
<ItemData ItemOID="IT.ADQS.TRTSDT" Value="17576"/>
<ItemData ItemOID="IT.ADQS.SAFFL" Value="Y"/>
</ItemGroupData>
<ItemGroupData ItemGroupOID="IG.ADQS" data:ItemGroupDataSeq="142">
<ItemData ItemOID="IT.ADQS.STUDYID" Value="SASCSTDEMODATA"/>
<ItemData ItemOID="IT.ADQS.USUBJID" Value="S001P004"/>
<ItemData ItemOID="IT.ADQS.TRTP" Value="TRT A"/>
<ItemData ItemOID="IT.ADQS.TRTPN" Value="1"/>
<ItemData ItemOID="IT.ADQS.ADT" Value="17578"/>
<ItemData ItemOID="IT.ADQS.ADY" Value="1"/>
<ItemData ItemOID="IT.ADQS.AVISIT" Value="RANDOMIZATION"/>
<ItemData ItemOID="IT.ADQS.AVISITN" Value="1"/>
<ItemData ItemOID="IT.ADQS.PARAM" Value="Word Recall Task"/>
<ItemData ItemOID="IT.ADQS.PARAMCD" Value="ACITM01"/>
<ItemData ItemOID="IT.ADQS.PARAMN" Value="1"/>
<ItemData ItemOID="IT.ADQS.AVAL" Value="5"/>
<ItemData ItemOID="IT.ADQS.QSSEQ" Value="155"/>
<ItemData ItemOID="IT.ADQS.QSCAT" Value="ALZHEIMER'S DISEASE ASSESSMENT SCALE"/>
<ItemData ItemOID="IT.ADQS.QSORRES" Value="5"/>
<ItemData ItemOID="IT.ADQS.QSSTRESC" Value="5"/>
<ItemData ItemOID="IT.ADQS.AGE" Value="41"/>
<ItemData ItemOID="IT.ADQS.SEX" Value="F"/>
<ItemData ItemOID="IT.ADQS.TRTEDT" Value="17605"/>
<ItemData ItemOID="IT.ADQS.TRTSDT" Value="17577"/>
<ItemData ItemOID="IT.ADQS.SAFFL" Value="Y"/>
</ItemGroupData>
<ItemGroupData ItemGroupOID="IG.ADQS" data:ItemGroupDataSeq="143">
<ItemData ItemOID="IT.ADQS.STUDYID" Value="SASCSTDEMODATA"/>
<ItemData ItemOID="IT.ADQS.USUBJID" Value="S001P004"/>
<ItemData ItemOID="IT.ADQS.TRTP" Value="TRT A"/>
<ItemData ItemOID="IT.ADQS.TRTPN" Value="1"/>
<ItemData ItemOID="IT.ADQS.ADT" Value="17578"/>
<ItemData ItemOID="IT.ADQS.ADY" Value="1"/>
<ItemData ItemOID="IT.ADQS.AVISIT" Value="RANDOMIZATION"/>
<ItemData ItemOID="IT.ADQS.AVISITN" Value="1"/>
<ItemData ItemOID="IT.ADQS.PARAM" Value="Naming Objects and Fingers"/>
<ItemData ItemOID="IT.ADQS.PARAMCD" Value="ACITM02"/>
<ItemData ItemOID="IT.ADQS.PARAMN" Value="2"/>
<ItemData ItemOID="IT.ADQS.AVAL" Value="0"/>
<ItemData ItemOID="IT.ADQS.QSSEQ" Value="150"/>
<ItemData ItemOID="IT.ADQS.QSCAT" Value="ALZHEIMER'S DISEASE ASSESSMENT SCALE"/>
<ItemData ItemOID="IT.ADQS.QSORRES" Value="0"/>
<ItemData ItemOID="IT.ADQS.QSSTRESC" Value="0"/>
<ItemData ItemOID="IT.ADQS.AGE" Value="41"/>
<ItemData ItemOID="IT.ADQS.SEX" Value="F"/>
<ItemData ItemOID="IT.ADQS.TRTEDT" Value="17605"/>
<ItemData ItemOID="IT.ADQS.TRTSDT" Value="17577"/>
<ItemData ItemOID="IT.ADQS.SAFFL" Value="Y"/>
</ItemGroupData>
<ItemGroupData ItemGroupOID="IG.ADQS" data:ItemGroupDataSeq="144">
<ItemData ItemOID="IT.ADQS.STUDYID" Value="SASCSTDEMODATA"/>
<ItemData ItemOID="IT.ADQS.USUBJID" Value="S001P004"/>
<ItemData ItemOID="IT.ADQS.TRTP" Value="TRT A"/>
<ItemData ItemOID="IT.ADQS.TRTPN" Value="1"/>
<ItemData ItemOID="IT.ADQS.ADT" Value="17578"/>
<ItemData ItemOID="IT.ADQS.ADY" Value="1"/>
<ItemData ItemOID="IT.ADQS.AVISIT" Value="RANDOMIZATION"/>
<ItemData ItemOID="IT.ADQS.AVISITN" Value="1"/>
<ItemData ItemOID="IT.ADQS.PARAM" Value="Delayed Word Recall"/>
<ItemData ItemOID="IT.ADQS.PARAMCD" Value="ACITM03"/>
<ItemData ItemOID="IT.ADQS.PARAMN" Value="3"/>
<ItemData ItemOID="IT.ADQS.AVAL" Value="6"/>
<ItemData ItemOID="IT.ADQS.QSSEQ" Value="147"/>
<ItemData ItemOID="IT.ADQS.QSCAT" Value="ALZHEIMER'S DISEASE ASSESSMENT SCALE"/>
<ItemData ItemOID="IT.ADQS.QSORRES" Value="6"/>
<ItemData ItemOID="IT.ADQS.QSSTRESC" Value="6"/>
<ItemData ItemOID="IT.ADQS.AGE" Value="41"/>
<ItemData ItemOID="IT.ADQS.SEX" Value="F"/>
<ItemData ItemOID="IT.ADQS.TRTEDT" Value="17605"/>
<ItemData ItemOID="IT.ADQS.TRTSDT" Value="17577"/>
<ItemData ItemOID="IT.ADQS.SAFFL" Value="Y"/>
</ItemGroupData>
<ItemGroupData ItemGroupOID="IG.ADQS" data:ItemGroupDataSeq="145">
<ItemData ItemOID="IT.ADQS.STUDYID" Value="SASCSTDEMODATA"/>
<ItemData ItemOID="IT.ADQS.USUBJID" Value="S001P004"/>
<ItemData ItemOID="IT.ADQS.TRTP" Value="TRT A"/>
<ItemData ItemOID="IT.ADQS.TRTPN" Value="1"/>
<ItemData ItemOID="IT.ADQS.ADT" Value="17578"/>
<ItemData ItemOID="IT.ADQS.ADY" Value="1"/>
<ItemData ItemOID="IT.ADQS.AVISIT" Value="RANDOMIZATION"/>
<ItemData ItemOID="IT.ADQS.AVISITN" Value="1"/>
<ItemData ItemOID="IT.ADQS.PARAM" Value="Commands"/>
<ItemData ItemOID="IT.ADQS.PARAMCD" Value="ACITM04"/>
<ItemData ItemOID="IT.ADQS.PARAMN" Value="4"/>
<ItemData ItemOID="IT.ADQS.AVAL" Value="0"/>
<ItemData ItemOID="IT.ADQS.QSSEQ" Value="144"/>
<ItemData ItemOID="IT.ADQS.QSCAT" Value="ALZHEIMER'S DISEASE ASSESSMENT SCALE"/>
<ItemData ItemOID="IT.ADQS.QSORRES" Value="0"/>
<ItemData ItemOID="IT.ADQS.QSSTRESC" Value="0"/>
<ItemData ItemOID="IT.ADQS.AGE" Value="41"/>
<ItemData ItemOID="IT.ADQS.SEX" Value="F"/>
<ItemData ItemOID="IT.ADQS.TRTEDT" Value="17605"/>
<ItemData ItemOID="IT.ADQS.TRTSDT" Value="17577"/>
<ItemData ItemOID="IT.ADQS.SAFFL" Value="Y"/>
</ItemGroupData>
<ItemGroupData ItemGroupOID="IG.ADQS" data:ItemGroupDataSeq="146">
<ItemData ItemOID="IT.ADQS.STUDYID" Value="SASCSTDEMODATA"/>
<ItemData ItemOID="IT.ADQS.USUBJID" Value="S001P004"/>
<ItemData ItemOID="IT.ADQS.TRTP" Value="TRT A"/>
<ItemData ItemOID="IT.ADQS.TRTPN" Value="1"/>
<ItemData ItemOID="IT.ADQS.ADT" Value="17578"/>
<ItemData ItemOID="IT.ADQS.ADY" Value="1"/>
<ItemData ItemOID="IT.ADQS.AVISIT" Value="RANDOMIZATION"/>
<ItemData ItemOID="IT.ADQS.AVISITN" Value="1"/>
<ItemData ItemOID="IT.ADQS.PARAM" Value="Constructional Praxis"/>
<ItemData ItemOID="IT.ADQS.PARAMCD" Value="ACITM05"/>
<ItemData ItemOID="IT.ADQS.PARAMN" Value="5"/>
<ItemData ItemOID="IT.ADQS.AVAL" Value="1"/>
<ItemData ItemOID="IT.ADQS.QSSEQ" Value="146"/>
<ItemData ItemOID="IT.ADQS.QSCAT" Value="ALZHEIMER'S DISEASE ASSESSMENT SCALE"/>
<ItemData ItemOID="IT.ADQS.QSORRES" Value="1"/>
<ItemData ItemOID="IT.ADQS.QSSTRESC" Value="1"/>
<ItemData ItemOID="IT.ADQS.AGE" Value="41"/>
<ItemData ItemOID="IT.ADQS.SEX" Value="F"/>
<ItemData ItemOID="IT.ADQS.TRTEDT" Value="17605"/>
<ItemData ItemOID="IT.ADQS.TRTSDT" Value="17577"/>
<ItemData ItemOID="IT.ADQS.SAFFL" Value="Y"/>
</ItemGroupData>
<ItemGroupData ItemGroupOID="IG.ADQS" data:ItemGroupDataSeq="147">
<ItemData ItemOID="IT.ADQS.STUDYID" Value="SASCSTDEMODATA"/>
<ItemData ItemOID="IT.ADQS.USUBJID" Value="S001P004"/>
<ItemData ItemOID="IT.ADQS.TRTP" Value="TRT A"/>
<ItemData ItemOID="IT.ADQS.TRTPN" Value="1"/>
<ItemData ItemOID="IT.ADQS.ADT" Value="17578"/>
<ItemData ItemOID="IT.ADQS.ADY" Value="1"/>
<ItemData ItemOID="IT.ADQS.AVISIT" Value="RANDOMIZATION"/>
<ItemData ItemOID="IT.ADQS.AVISITN" Value="1"/>
<ItemData ItemOID="IT.ADQS.PARAM" Value="Ideational Praxis"/>
<ItemData ItemOID="IT.ADQS.PARAMCD" Value="ACITM06"/>
<ItemData ItemOID="IT.ADQS.PARAMN" Value="6"/>
<ItemData ItemOID="IT.ADQS.AVAL" Value="0"/>
<ItemData ItemOID="IT.ADQS.QSSEQ" Value="148"/>
<ItemData ItemOID="IT.ADQS.QSCAT" Value="ALZHEIMER'S DISEASE ASSESSMENT SCALE"/>
<ItemData ItemOID="IT.ADQS.QSORRES" Value="0"/>
<ItemData ItemOID="IT.ADQS.QSSTRESC" Value="0"/>
<ItemData ItemOID="IT.ADQS.AGE" Value="41"/>
<ItemData ItemOID="IT.ADQS.SEX" Value="F"/>
<ItemData ItemOID="IT.ADQS.TRTEDT" Value="17605"/>
<ItemData ItemOID="IT.ADQS.TRTSDT" Value="17577"/>
<ItemData ItemOID="IT.ADQS.SAFFL" Value="Y"/>
</ItemGroupData>
<ItemGroupData ItemGroupOID="IG.ADQS" data:ItemGroupDataSeq="148">
<ItemData ItemOID="IT.ADQS.STUDYID" Value="SASCSTDEMODATA"/>
<ItemData ItemOID="IT.ADQS.USUBJID" Value="S001P004"/>
<ItemData ItemOID="IT.ADQS.TRTP" Value="TRT A"/>
<ItemData ItemOID="IT.ADQS.TRTPN" Value="1"/>
<ItemData ItemOID="IT.ADQS.ADT" Value="17578"/>
<ItemData ItemOID="IT.ADQS.ADY" Value="1"/>
<ItemData ItemOID="IT.ADQS.AVISIT" Value="RANDOMIZATION"/>
<ItemData ItemOID="IT.ADQS.AVISITN" Value="1"/>
<ItemData ItemOID="IT.ADQS.PARAM" Value="Orientation"/>
<ItemData ItemOID="IT.ADQS.PARAMCD" Value="ACITM07"/>
<ItemData ItemOID="IT.ADQS.PARAMN" Value="7"/>
<ItemData ItemOID="IT.ADQS.AVAL" Value="0"/>
<ItemData ItemOID="IT.ADQS.QSSEQ" Value="151"/>
<ItemData ItemOID="IT.ADQS.QSCAT" Value="ALZHEIMER'S DISEASE ASSESSMENT SCALE"/>
<ItemData ItemOID="IT.ADQS.QSORRES" Value="0"/>
<ItemData ItemOID="IT.ADQS.QSSTRESC" Value="0"/>
<ItemData ItemOID="IT.ADQS.AGE" Value="41"/>
<ItemData ItemOID="IT.ADQS.SEX" Value="F"/>
<ItemData ItemOID="IT.ADQS.TRTEDT" Value="17605"/>
<ItemData ItemOID="IT.ADQS.TRTSDT" Value="17577"/>
<ItemData ItemOID="IT.ADQS.SAFFL" Value="Y"/>
</ItemGroupData>
<ItemGroupData ItemGroupOID="IG.ADQS" data:ItemGroupDataSeq="149">
<ItemData ItemOID="IT.ADQS.STUDYID" Value="SASCSTDEMODATA"/>
<ItemData ItemOID="IT.ADQS.USUBJID" Value="S001P004"/>
<ItemData ItemOID="IT.ADQS.TRTP" Value="TRT A"/>
<ItemData ItemOID="IT.ADQS.TRTPN" Value="1"/>
<ItemData ItemOID="IT.ADQS.ADT" Value="17578"/>
<ItemData ItemOID="IT.ADQS.ADY" Value="1"/>
<ItemData ItemOID="IT.ADQS.AVISIT" Value="RANDOMIZATION"/>
<ItemData ItemOID="IT.ADQS.AVISITN" Value="1"/>
<ItemData ItemOID="IT.ADQS.PARAM" Value="Word Recognition"/>
<ItemData ItemOID="IT.ADQS.PARAMCD" Value="ACITM08"/>
<ItemData ItemOID="IT.ADQS.PARAMN" Value="8"/>
<ItemData ItemOID="IT.ADQS.AVAL" Value="1"/>
<ItemData ItemOID="IT.ADQS.QSSEQ" Value="156"/>
<ItemData ItemOID="IT.ADQS.QSCAT" Value="ALZHEIMER'S DISEASE ASSESSMENT SCALE"/>
<ItemData ItemOID="IT.ADQS.QSORRES" Value="1"/>
<ItemData ItemOID="IT.ADQS.QSSTRESC" Value="1"/>
<ItemData ItemOID="IT.ADQS.AGE" Value="41"/>
<ItemData ItemOID="IT.ADQS.SEX" Value="F"/>
<ItemData ItemOID="IT.ADQS.TRTEDT" Value="17605"/>
<ItemData ItemOID="IT.ADQS.TRTSDT" Value="17577"/>
<ItemData ItemOID="IT.ADQS.SAFFL" Value="Y"/>
</ItemGroupData>
<ItemGroupData ItemGroupOID="IG.ADQS" data:ItemGroupDataSeq="150">
<ItemData ItemOID="IT.ADQS.STUDYID" Value="SASCSTDEMODATA"/>
<ItemData ItemOID="IT.ADQS.USUBJID" Value="S001P004"/>
<ItemData ItemOID="IT.ADQS.TRTP" Value="TRT A"/>
<ItemData ItemOID="IT.ADQS.TRTPN" Value="1"/>
<ItemData ItemOID="IT.ADQS.ADT" Value="17578"/>
<ItemData ItemOID="IT.ADQS.ADY" Value="1"/>
<ItemData ItemOID="IT.ADQS.AVISIT" Value="RANDOMIZATION"/>
<ItemData ItemOID="IT.ADQS.AVISITN" Value="1"/>
<ItemData ItemOID="IT.ADQS.PARAM" Value="Attention/Visual Search Task"/>
<ItemData ItemOID="IT.ADQS.PARAMCD" Value="ACITM09"/>
<ItemData ItemOID="IT.ADQS.PARAMN" Value="9"/>
<ItemData ItemOID="IT.ADQS.AVAL" Value="30"/>
<ItemData ItemOID="IT.ADQS.QSSEQ" Value="143"/>
<ItemData ItemOID="IT.ADQS.QSCAT" Value="ALZHEIMER'S DISEASE ASSESSMENT SCALE"/>
<ItemData ItemOID="IT.ADQS.QSORRES" Value="30"/>
<ItemData ItemOID="IT.ADQS.QSSTRESC" Value="30"/>
<ItemData ItemOID="IT.ADQS.AGE" Value="41"/>
<ItemData ItemOID="IT.ADQS.SEX" Value="F"/>
<ItemData ItemOID="IT.ADQS.TRTEDT" Value="17605"/>
<ItemData ItemOID="IT.ADQS.TRTSDT" Value="17577"/>
<ItemData ItemOID="IT.ADQS.SAFFL" Value="Y"/>
</ItemGroupData>
<ItemGroupData ItemGroupOID="IG.ADQS" data:ItemGroupDataSeq="151">
<ItemData ItemOID="IT.ADQS.STUDYID" Value="SASCSTDEMODATA"/>
<ItemData ItemOID="IT.ADQS.USUBJID" Value="S001P004"/>
<ItemData ItemOID="IT.ADQS.TRTP" Value="TRT A"/>
<ItemData ItemOID="IT.ADQS.TRTPN" Value="1"/>
<ItemData ItemOID="IT.ADQS.ADT" Value="17578"/>
<ItemData ItemOID="IT.ADQS.ADY" Value="1"/>
<ItemData ItemOID="IT.ADQS.AVISIT" Value="RANDOMIZATION"/>
<ItemData ItemOID="IT.ADQS.AVISITN" Value="1"/>
<ItemData ItemOID="IT.ADQS.PARAM" Value="Maze Solution"/>
<ItemData ItemOID="IT.ADQS.PARAMCD" Value="ACITM10"/>
<ItemData ItemOID="IT.ADQS.PARAMN" Value="10"/>
<ItemData ItemOID="IT.ADQS.AVAL" Value="7"/>
<ItemData ItemOID="IT.ADQS.QSSEQ" Value="149"/>
<ItemData ItemOID="IT.ADQS.QSCAT" Value="ALZHEIMER'S DISEASE ASSESSMENT SCALE"/>
<ItemData ItemOID="IT.ADQS.QSORRES" Value="7"/>
<ItemData ItemOID="IT.ADQS.QSORRESU" Value="seconds"/>
<ItemData ItemOID="IT.ADQS.QSSTRESC" Value="7"/>
<ItemData ItemOID="IT.ADQS.QSSTRESU" Value="seconds"/>
<ItemData ItemOID="IT.ADQS.AGE" Value="41"/>
<ItemData ItemOID="IT.ADQS.SEX" Value="F"/>
<ItemData ItemOID="IT.ADQS.TRTEDT" Value="17605"/>
<ItemData ItemOID="IT.ADQS.TRTSDT" Value="17577"/>
<ItemData ItemOID="IT.ADQS.SAFFL" Value="Y"/>
</ItemGroupData>
<ItemGroupData ItemGroupOID="IG.ADQS" data:ItemGroupDataSeq="152">
<ItemData ItemOID="IT.ADQS.STUDYID" Value="SASCSTDEMODATA"/>
<ItemData ItemOID="IT.ADQS.USUBJID" Value="S001P004"/>
<ItemData ItemOID="IT.ADQS.TRTP" Value="TRT A"/>
<ItemData ItemOID="IT.ADQS.TRTPN" Value="1"/>
<ItemData ItemOID="IT.ADQS.ADT" Value="17578"/>
<ItemData ItemOID="IT.ADQS.ADY" Value="1"/>
<ItemData ItemOID="IT.ADQS.AVISIT" Value="RANDOMIZATION"/>
<ItemData ItemOID="IT.ADQS.AVISITN" Value="1"/>
<ItemData ItemOID="IT.ADQS.PARAM" Value="Spoken Language Ability"/>
<ItemData ItemOID="IT.ADQS.PARAMCD" Value="ACITM11"/>
<ItemData ItemOID="IT.ADQS.PARAMN" Value="11"/>
<ItemData ItemOID="IT.ADQS.AVAL" Value="0"/>
<ItemData ItemOID="IT.ADQS.QSSEQ" Value="153"/>
<ItemData ItemOID="IT.ADQS.QSCAT" Value="ALZHEIMER'S DISEASE ASSESSMENT SCALE"/>
<ItemData ItemOID="IT.ADQS.QSORRES" Value="0"/>
<ItemData ItemOID="IT.ADQS.QSSTRESC" Value="0"/>
<ItemData ItemOID="IT.ADQS.AGE" Value="41"/>
<ItemData ItemOID="IT.ADQS.SEX" Value="F"/>
<ItemData ItemOID="IT.ADQS.TRTEDT" Value="17605"/>
<ItemData ItemOID="IT.ADQS.TRTSDT" Value="17577"/>
<ItemData ItemOID="IT.ADQS.SAFFL" Value="Y"/>
</ItemGroupData>
<ItemGroupData ItemGroupOID="IG.ADQS" data:ItemGroupDataSeq="153">
<ItemData ItemOID="IT.ADQS.STUDYID" Value="SASCSTDEMODATA"/>
<ItemData ItemOID="IT.ADQS.USUBJID" Value="S001P004"/>
<ItemData ItemOID="IT.ADQS.TRTP" Value="TRT A"/>
<ItemData ItemOID="IT.ADQS.TRTPN" Value="1"/>
<ItemData ItemOID="IT.ADQS.ADT" Value="17578"/>
<ItemData ItemOID="IT.ADQS.ADY" Value="1"/>
<ItemData ItemOID="IT.ADQS.AVISIT" Value="RANDOMIZATION"/>
<ItemData ItemOID="IT.ADQS.AVISITN" Value="1"/>
<ItemData ItemOID="IT.ADQS.PARAM" Value="Comprehension of Spoken Language"/>
<ItemData ItemOID="IT.ADQS.PARAMCD" Value="ACITM12"/>
<ItemData ItemOID="IT.ADQS.PARAMN" Value="12"/>
<ItemData ItemOID="IT.ADQS.AVAL" Value="0"/>
<ItemData ItemOID="IT.ADQS.QSSEQ" Value="145"/>
<ItemData ItemOID="IT.ADQS.QSCAT" Value="ALZHEIMER'S DISEASE ASSESSMENT SCALE"/>
<ItemData ItemOID="IT.ADQS.QSORRES" Value="0"/>
<ItemData ItemOID="IT.ADQS.QSSTRESC" Value="0"/>
<ItemData ItemOID="IT.ADQS.AGE" Value="41"/>
<ItemData ItemOID="IT.ADQS.SEX" Value="F"/>
<ItemData ItemOID="IT.ADQS.TRTEDT" Value="17605"/>
<ItemData ItemOID="IT.ADQS.TRTSDT" Value="17577"/>
<ItemData ItemOID="IT.ADQS.SAFFL" Value="Y"/>
</ItemGroupData>
<ItemGroupData ItemGroupOID="IG.ADQS" data:ItemGroupDataSeq="154">
<ItemData ItemOID="IT.ADQS.STUDYID" Value="SASCSTDEMODATA"/>
<ItemData ItemOID="IT.ADQS.USUBJID" Value="S001P004"/>
<ItemData ItemOID="IT.ADQS.TRTP" Value="TRT A"/>
<ItemData ItemOID="IT.ADQS.TRTPN" Value="1"/>
<ItemData ItemOID="IT.ADQS.ADT" Value="17578"/>
<ItemData ItemOID="IT.ADQS.ADY" Value="1"/>
<ItemData ItemOID="IT.ADQS.AVISIT" Value="RANDOMIZATION"/>
<ItemData ItemOID="IT.ADQS.AVISITN" Value="1"/>
<ItemData ItemOID="IT.ADQS.PARAM" Value="Word Finding Difficulty in Spontaneous Speech"/>
<ItemData ItemOID="IT.ADQS.PARAMCD" Value="ACITM13"/>
<ItemData ItemOID="IT.ADQS.PARAMN" Value="13"/>
<ItemData ItemOID="IT.ADQS.AVAL" Value="0"/>
<ItemData ItemOID="IT.ADQS.QSSEQ" Value="154"/>
<ItemData ItemOID="IT.ADQS.QSCAT" Value="ALZHEIMER'S DISEASE ASSESSMENT SCALE"/>
<ItemData ItemOID="IT.ADQS.QSORRES" Value="0"/>
<ItemData ItemOID="IT.ADQS.QSSTRESC" Value="0"/>
<ItemData ItemOID="IT.ADQS.AGE" Value="41"/>
<ItemData ItemOID="IT.ADQS.SEX" Value="F"/>
<ItemData ItemOID="IT.ADQS.TRTEDT" Value="17605"/>
<ItemData ItemOID="IT.ADQS.TRTSDT" Value="17577"/>
<ItemData ItemOID="IT.ADQS.SAFFL" Value="Y"/>
</ItemGroupData>
<ItemGroupData ItemGroupOID="IG.ADQS" data:ItemGroupDataSeq="155">
<ItemData ItemOID="IT.ADQS.STUDYID" Value="SASCSTDEMODATA"/>
<ItemData ItemOID="IT.ADQS.USUBJID" Value="S001P004"/>
<ItemData ItemOID="IT.ADQS.TRTP" Value="TRT A"/>
<ItemData ItemOID="IT.ADQS.TRTPN" Value="1"/>
<ItemData ItemOID="IT.ADQS.ADT" Value="17578"/>
<ItemData ItemOID="IT.ADQS.ADY" Value="1"/>
<ItemData ItemOID="IT.ADQS.AVISIT" Value="RANDOMIZATION"/>
<ItemData ItemOID="IT.ADQS.AVISITN" Value="1"/>
<ItemData ItemOID="IT.ADQS.PARAM" Value="Recall of Test Instructions"/>
<ItemData ItemOID="IT.ADQS.PARAMCD" Value="ACITM14"/>
<ItemData ItemOID="IT.ADQS.PARAMN" Value="14"/>
<ItemData ItemOID="IT.ADQS.AVAL" Value="0"/>
<ItemData ItemOID="IT.ADQS.QSSEQ" Value="152"/>
<ItemData ItemOID="IT.ADQS.QSCAT" Value="ALZHEIMER'S DISEASE ASSESSMENT SCALE"/>
<ItemData ItemOID="IT.ADQS.QSORRES" Value="0"/>
<ItemData ItemOID="IT.ADQS.QSSTRESC" Value="0"/>
<ItemData ItemOID="IT.ADQS.AGE" Value="41"/>
<ItemData ItemOID="IT.ADQS.SEX" Value="F"/>
<ItemData ItemOID="IT.ADQS.TRTEDT" Value="17605"/>
<ItemData ItemOID="IT.ADQS.TRTSDT" Value="17577"/>
<ItemData ItemOID="IT.ADQS.SAFFL" Value="Y"/>
</ItemGroupData>
<ItemGroupData ItemGroupOID="IG.ADQS" data:ItemGroupDataSeq="156">
<ItemData ItemOID="IT.ADQS.STUDYID" Value="SASCSTDEMODATA"/>
<ItemData ItemOID="IT.ADQS.USUBJID" Value="S001P004"/>
<ItemData ItemOID="IT.ADQS.TRTP" Value="TRT A"/>
<ItemData ItemOID="IT.ADQS.TRTPN" Value="1"/>
<ItemData ItemOID="IT.ADQS.ADT" Value="17578"/>
<ItemData ItemOID="IT.ADQS.ADY" Value="1"/>
<ItemData ItemOID="IT.ADQS.AVISIT" Value="RANDOMIZATION"/>
<ItemData ItemOID="IT.ADQS.AVISITN" Value="1"/>
<ItemData ItemOID="IT.ADQS.PARAM" Value="Adas-Cog(11) Subscore"/>
<ItemData ItemOID="IT.ADQS.PARAMCD" Value="ACTOT"/>
<ItemData ItemOID="IT.ADQS.PARAMN" Value="1"/>
<ItemData ItemOID="IT.ADQS.AVAL" Value="7"/>
<ItemData ItemOID="IT.ADQS.QSSEQ" Value="142"/>
<ItemData ItemOID="IT.ADQS.QSCAT" Value="ALZHEIMER'S DISEASE ASSESSMENT SCALE"/>
<ItemData ItemOID="IT.ADQS.QSSTRESC" Value="7"/>
<ItemData ItemOID="IT.ADQS.AGE" Value="41"/>
<ItemData ItemOID="IT.ADQS.SEX" Value="F"/>
<ItemData ItemOID="IT.ADQS.TRTEDT" Value="17605"/>
<ItemData ItemOID="IT.ADQS.TRTSDT" Value="17577"/>
<ItemData ItemOID="IT.ADQS.SAFFL" Value="Y"/>
</ItemGroupData>
<ItemGroupData ItemGroupOID="IG.ADQS" data:ItemGroupDataSeq="157">
<ItemData ItemOID="IT.ADQS.STUDYID" Value="SASCSTDEMODATA"/>
<ItemData ItemOID="IT.ADQS.USUBJID" Value="S001P005"/>
<ItemData ItemOID="IT.ADQS.TRTP" Value="TRT C"/>
<ItemData ItemOID="IT.ADQS.TRTPN" Value="3"/>
<ItemData ItemOID="IT.ADQS.ADT" Value="17583"/>
<ItemData ItemOID="IT.ADQS.ADY" Value="1"/>
<ItemData ItemOID="IT.ADQS.AVISIT" Value="RANDOMIZATION"/>
<ItemData ItemOID="IT.ADQS.AVISITN" Value="1"/>
<ItemData ItemOID="IT.ADQS.PARAM" Value="Word Recall Task"/>
<ItemData ItemOID="IT.ADQS.PARAMCD" Value="ACITM01"/>
<ItemData ItemOID="IT.ADQS.PARAMN" Value="1"/>
<ItemData ItemOID="IT.ADQS.AVAL" Value="5"/>
<ItemData ItemOID="IT.ADQS.QSSEQ" Value="212"/>
<ItemData ItemOID="IT.ADQS.QSCAT" Value="ALZHEIMER'S DISEASE ASSESSMENT SCALE"/>
<ItemData ItemOID="IT.ADQS.QSORRES" Value="5"/>
<ItemData ItemOID="IT.ADQS.QSSTRESC" Value="5"/>
<ItemData ItemOID="IT.ADQS.AGE" Value="51"/>
<ItemData ItemOID="IT.ADQS.SEX" Value="M"/>
<ItemData ItemOID="IT.ADQS.TRTEDT" Value="17624"/>
<ItemData ItemOID="IT.ADQS.TRTSDT" Value="17582"/>
<ItemData ItemOID="IT.ADQS.SAFFL" Value="Y"/>
</ItemGroupData>
<ItemGroupData ItemGroupOID="IG.ADQS" data:ItemGroupDataSeq="158">
<ItemData ItemOID="IT.ADQS.STUDYID" Value="SASCSTDEMODATA"/>
<ItemData ItemOID="IT.ADQS.USUBJID" Value="S001P005"/>
<ItemData ItemOID="IT.ADQS.TRTP" Value="TRT C"/>
<ItemData ItemOID="IT.ADQS.TRTPN" Value="3"/>
<ItemData ItemOID="IT.ADQS.ADT" Value="17598"/>
<ItemData ItemOID="IT.ADQS.ADY" Value="16"/>
<ItemData ItemOID="IT.ADQS.AVISIT" Value="2 WEEKS"/>
<ItemData ItemOID="IT.ADQS.AVISITN" Value="2"/>
<ItemData ItemOID="IT.ADQS.PARAM" Value="Word Recall Task"/>
<ItemData ItemOID="IT.ADQS.PARAMCD" Value="ACITM01"/>
<ItemData ItemOID="IT.ADQS.PARAMN" Value="1"/>
<ItemData ItemOID="IT.ADQS.AVAL" Value="5"/>
<ItemData ItemOID="IT.ADQS.QSSEQ" Value="213"/>
<ItemData ItemOID="IT.ADQS.QSCAT" Value="ALZHEIMER'S DISEASE ASSESSMENT SCALE"/>
<ItemData ItemOID="IT.ADQS.QSORRES" Value="5"/>
<ItemData ItemOID="IT.ADQS.QSSTRESC" Value="5"/>
<ItemData ItemOID="IT.ADQS.AGE" Value="51"/>
<ItemData ItemOID="IT.ADQS.SEX" Value="M"/>
<ItemData ItemOID="IT.ADQS.TRTEDT" Value="17624"/>
<ItemData ItemOID="IT.ADQS.TRTSDT" Value="17582"/>
<ItemData ItemOID="IT.ADQS.SAFFL" Value="Y"/>
</ItemGroupData>
<ItemGroupData ItemGroupOID="IG.ADQS" data:ItemGroupDataSeq="159">
<ItemData ItemOID="IT.ADQS.STUDYID" Value="SASCSTDEMODATA"/>
<ItemData ItemOID="IT.ADQS.USUBJID" Value="S001P005"/>
<ItemData ItemOID="IT.ADQS.TRTP" Value="TRT C"/>
<ItemData ItemOID="IT.ADQS.TRTPN" Value="3"/>
<ItemData ItemOID="IT.ADQS.ADT" Value="17612"/>
<ItemData ItemOID="IT.ADQS.ADY" Value="30"/>
<ItemData ItemOID="IT.ADQS.AVISIT" Value="4 WEEKS"/>
<ItemData ItemOID="IT.ADQS.AVISITN" Value="3"/>
<ItemData ItemOID="IT.ADQS.PARAM" Value="Word Recall Task"/>
<ItemData ItemOID="IT.ADQS.PARAMCD" Value="ACITM01"/>
<ItemData ItemOID="IT.ADQS.PARAMN" Value="1"/>
<ItemData ItemOID="IT.ADQS.AVAL" Value="6"/>
<ItemData ItemOID="IT.ADQS.QSSEQ" Value="214"/>
<ItemData ItemOID="IT.ADQS.QSCAT" Value="ALZHEIMER'S DISEASE ASSESSMENT SCALE"/>
<ItemData ItemOID="IT.ADQS.QSORRES" Value="6"/>
<ItemData ItemOID="IT.ADQS.QSSTRESC" Value="6"/>
<ItemData ItemOID="IT.ADQS.AGE" Value="51"/>
<ItemData ItemOID="IT.ADQS.SEX" Value="M"/>
<ItemData ItemOID="IT.ADQS.TRTEDT" Value="17624"/>
<ItemData ItemOID="IT.ADQS.TRTSDT" Value="17582"/>
<ItemData ItemOID="IT.ADQS.SAFFL" Value="Y"/>
</ItemGroupData>
<ItemGroupData ItemGroupOID="IG.ADQS" data:ItemGroupDataSeq="160">
<ItemData ItemOID="IT.ADQS.STUDYID" Value="SASCSTDEMODATA"/>
<ItemData ItemOID="IT.ADQS.USUBJID" Value="S001P005"/>
<ItemData ItemOID="IT.ADQS.TRTP" Value="TRT C"/>
<ItemData ItemOID="IT.ADQS.TRTPN" Value="3"/>
<ItemData ItemOID="IT.ADQS.ADT" Value="17627"/>
<ItemData ItemOID="IT.ADQS.ADY" Value="45"/>
<ItemData ItemOID="IT.ADQS.AVISIT" Value="6 WEEKS"/>
<ItemData ItemOID="IT.ADQS.AVISITN" Value="4"/>
<ItemData ItemOID="IT.ADQS.PARAM" Value="Word Recall Task"/>
<ItemData ItemOID="IT.ADQS.PARAMCD" Value="ACITM01"/>
<ItemData ItemOID="IT.ADQS.PARAMN" Value="1"/>
<ItemData ItemOID="IT.ADQS.AVAL" Value="6"/>
<ItemData ItemOID="IT.ADQS.QSSEQ" Value="215"/>
<ItemData ItemOID="IT.ADQS.QSCAT" Value="ALZHEIMER'S DISEASE ASSESSMENT SCALE"/>
<ItemData ItemOID="IT.ADQS.QSORRES" Value="6"/>
<ItemData ItemOID="IT.ADQS.QSSTRESC" Value="6"/>
<ItemData ItemOID="IT.ADQS.AGE" Value="51"/>
<ItemData ItemOID="IT.ADQS.SEX" Value="M"/>
<ItemData ItemOID="IT.ADQS.TRTEDT" Value="17624"/>
<ItemData ItemOID="IT.ADQS.TRTSDT" Value="17582"/>
<ItemData ItemOID="IT.ADQS.SAFFL" Value="Y"/>
</ItemGroupData>
<ItemGroupData ItemGroupOID="IG.ADQS" data:ItemGroupDataSeq="161">
<ItemData ItemOID="IT.ADQS.STUDYID" Value="SASCSTDEMODATA"/>
<ItemData ItemOID="IT.ADQS.USUBJID" Value="S001P005"/>
<ItemData ItemOID="IT.ADQS.TRTP" Value="TRT C"/>
<ItemData ItemOID="IT.ADQS.TRTPN" Value="3"/>
<ItemData ItemOID="IT.ADQS.ADT" Value="17583"/>
<ItemData ItemOID="IT.ADQS.ADY" Value="1"/>
<ItemData ItemOID="IT.ADQS.AVISIT" Value="RANDOMIZATION"/>
<ItemData ItemOID="IT.ADQS.AVISITN" Value="1"/>
<ItemData ItemOID="IT.ADQS.PARAM" Value="Naming Objects and Fingers"/>
<ItemData ItemOID="IT.ADQS.PARAMCD" Value="ACITM02"/>
<ItemData ItemOID="IT.ADQS.PARAMN" Value="2"/>
<ItemData ItemOID="IT.ADQS.AVAL" Value="0"/>
<ItemData ItemOID="IT.ADQS.QSSEQ" Value="192"/>
<ItemData ItemOID="IT.ADQS.QSCAT" Value="ALZHEIMER'S DISEASE ASSESSMENT SCALE"/>
<ItemData ItemOID="IT.ADQS.QSORRES" Value="0"/>
<ItemData ItemOID="IT.ADQS.QSSTRESC" Value="0"/>
<ItemData ItemOID="IT.ADQS.AGE" Value="51"/>
<ItemData ItemOID="IT.ADQS.SEX" Value="M"/>
<ItemData ItemOID="IT.ADQS.TRTEDT" Value="17624"/>
<ItemData ItemOID="IT.ADQS.TRTSDT" Value="17582"/>
<ItemData ItemOID="IT.ADQS.SAFFL" Value="Y"/>
</ItemGroupData>
<ItemGroupData ItemGroupOID="IG.ADQS" data:ItemGroupDataSeq="162">
<ItemData ItemOID="IT.ADQS.STUDYID" Value="SASCSTDEMODATA"/>
<ItemData ItemOID="IT.ADQS.USUBJID" Value="S001P005"/>
<ItemData ItemOID="IT.ADQS.TRTP" Value="TRT C"/>
<ItemData ItemOID="IT.ADQS.TRTPN" Value="3"/>
<ItemData ItemOID="IT.ADQS.ADT" Value="17598"/>
<ItemData ItemOID="IT.ADQS.ADY" Value="16"/>
<ItemData ItemOID="IT.ADQS.AVISIT" Value="2 WEEKS"/>
<ItemData ItemOID="IT.ADQS.AVISITN" Value="2"/>
<ItemData ItemOID="IT.ADQS.PARAM" Value="Naming Objects and Fingers"/>
<ItemData ItemOID="IT.ADQS.PARAMCD" Value="ACITM02"/>
<ItemData ItemOID="IT.ADQS.PARAMN" Value="2"/>
<ItemData ItemOID="IT.ADQS.AVAL" Value="1"/>
<ItemData ItemOID="IT.ADQS.QSSEQ" Value="193"/>
<ItemData ItemOID="IT.ADQS.QSCAT" Value="ALZHEIMER'S DISEASE ASSESSMENT SCALE"/>
<ItemData ItemOID="IT.ADQS.QSORRES" Value="1"/>
<ItemData ItemOID="IT.ADQS.QSSTRESC" Value="1"/>
<ItemData ItemOID="IT.ADQS.AGE" Value="51"/>
<ItemData ItemOID="IT.ADQS.SEX" Value="M"/>
<ItemData ItemOID="IT.ADQS.TRTEDT" Value="17624"/>
<ItemData ItemOID="IT.ADQS.TRTSDT" Value="17582"/>
<ItemData ItemOID="IT.ADQS.SAFFL" Value="Y"/>
</ItemGroupData>
<ItemGroupData ItemGroupOID="IG.ADQS" data:ItemGroupDataSeq="163">
<ItemData ItemOID="IT.ADQS.STUDYID" Value="SASCSTDEMODATA"/>
<ItemData ItemOID="IT.ADQS.USUBJID" Value="S001P005"/>
<ItemData ItemOID="IT.ADQS.TRTP" Value="TRT C"/>
<ItemData ItemOID="IT.ADQS.TRTPN" Value="3"/>
<ItemData ItemOID="IT.ADQS.ADT" Value="17612"/>
<ItemData ItemOID="IT.ADQS.ADY" Value="30"/>
<ItemData ItemOID="IT.ADQS.AVISIT" Value="4 WEEKS"/>
<ItemData ItemOID="IT.ADQS.AVISITN" Value="3"/>
<ItemData ItemOID="IT.ADQS.PARAM" Value="Naming Objects and Fingers"/>
<ItemData ItemOID="IT.ADQS.PARAMCD" Value="ACITM02"/>
<ItemData ItemOID="IT.ADQS.PARAMN" Value="2"/>
<ItemData ItemOID="IT.ADQS.AVAL" Value="1"/>
<ItemData ItemOID="IT.ADQS.QSSEQ" Value="194"/>
<ItemData ItemOID="IT.ADQS.QSCAT" Value="ALZHEIMER'S DISEASE ASSESSMENT SCALE"/>
<ItemData ItemOID="IT.ADQS.QSORRES" Value="1"/>
<ItemData ItemOID="IT.ADQS.QSSTRESC" Value="1"/>
<ItemData ItemOID="IT.ADQS.AGE" Value="51"/>
<ItemData ItemOID="IT.ADQS.SEX" Value="M"/>
<ItemData ItemOID="IT.ADQS.TRTEDT" Value="17624"/>
<ItemData ItemOID="IT.ADQS.TRTSDT" Value="17582"/>
<ItemData ItemOID="IT.ADQS.SAFFL" Value="Y"/>
</ItemGroupData>
<ItemGroupData ItemGroupOID="IG.ADQS" data:ItemGroupDataSeq="164">
<ItemData ItemOID="IT.ADQS.STUDYID" Value="SASCSTDEMODATA"/>
<ItemData ItemOID="IT.ADQS.USUBJID" Value="S001P005"/>
<ItemData ItemOID="IT.ADQS.TRTP" Value="TRT C"/>
<ItemData ItemOID="IT.ADQS.TRTPN" Value="3"/>
<ItemData ItemOID="IT.ADQS.ADT" Value="17627"/>
<ItemData ItemOID="IT.ADQS.ADY" Value="45"/>
<ItemData ItemOID="IT.ADQS.AVISIT" Value="6 WEEKS"/>
<ItemData ItemOID="IT.ADQS.AVISITN" Value="4"/>
<ItemData ItemOID="IT.ADQS.PARAM" Value="Naming Objects and Fingers"/>
<ItemData ItemOID="IT.ADQS.PARAMCD" Value="ACITM02"/>
<ItemData ItemOID="IT.ADQS.PARAMN" Value="2"/>
<ItemData ItemOID="IT.ADQS.AVAL" Value="1"/>
<ItemData ItemOID="IT.ADQS.QSSEQ" Value="195"/>
<ItemData ItemOID="IT.ADQS.QSCAT" Value="ALZHEIMER'S DISEASE ASSESSMENT SCALE"/>
<ItemData ItemOID="IT.ADQS.QSORRES" Value="1"/>
<ItemData ItemOID="IT.ADQS.QSSTRESC" Value="1"/>
<ItemData ItemOID="IT.ADQS.AGE" Value="51"/>
<ItemData ItemOID="IT.ADQS.SEX" Value="M"/>
<ItemData ItemOID="IT.ADQS.TRTEDT" Value="17624"/>
<ItemData ItemOID="IT.ADQS.TRTSDT" Value="17582"/>
<ItemData ItemOID="IT.ADQS.SAFFL" Value="Y"/>
</ItemGroupData>
<ItemGroupData ItemGroupOID="IG.ADQS" data:ItemGroupDataSeq="165">
<ItemData ItemOID="IT.ADQS.STUDYID" Value="SASCSTDEMODATA"/>
<ItemData ItemOID="IT.ADQS.USUBJID" Value="S001P005"/>
<ItemData ItemOID="IT.ADQS.TRTP" Value="TRT C"/>
<ItemData ItemOID="IT.ADQS.TRTPN" Value="3"/>
<ItemData ItemOID="IT.ADQS.ADT" Value="17583"/>
<ItemData ItemOID="IT.ADQS.ADY" Value="1"/>
<ItemData ItemOID="IT.ADQS.AVISIT" Value="RANDOMIZATION"/>
<ItemData ItemOID="IT.ADQS.AVISITN" Value="1"/>
<ItemData ItemOID="IT.ADQS.PARAM" Value="Delayed Word Recall"/>
<ItemData ItemOID="IT.ADQS.PARAMCD" Value="ACITM03"/>
<ItemData ItemOID="IT.ADQS.PARAMN" Value="3"/>
<ItemData ItemOID="IT.ADQS.AVAL" Value="9"/>
<ItemData ItemOID="IT.ADQS.QSSEQ" Value="177"/>
<ItemData ItemOID="IT.ADQS.QSCAT" Value="ALZHEIMER'S DISEASE ASSESSMENT SCALE"/>
<ItemData ItemOID="IT.ADQS.QSORRES" Value="9"/>
<ItemData ItemOID="IT.ADQS.QSSTRESC" Value="9"/>
<ItemData ItemOID="IT.ADQS.AGE" Value="51"/>
<ItemData ItemOID="IT.ADQS.SEX" Value="M"/>
<ItemData ItemOID="IT.ADQS.TRTEDT" Value="17624"/>
<ItemData ItemOID="IT.ADQS.TRTSDT" Value="17582"/>
<ItemData ItemOID="IT.ADQS.SAFFL" Value="Y"/>
</ItemGroupData>
<ItemGroupData ItemGroupOID="IG.ADQS" data:ItemGroupDataSeq="166">
<ItemData ItemOID="IT.ADQS.STUDYID" Value="SASCSTDEMODATA"/>
<ItemData ItemOID="IT.ADQS.USUBJID" Value="S001P005"/>
<ItemData ItemOID="IT.ADQS.TRTP" Value="TRT C"/>
<ItemData ItemOID="IT.ADQS.TRTPN" Value="3"/>
<ItemData ItemOID="IT.ADQS.ADT" Value="17598"/>
<ItemData ItemOID="IT.ADQS.ADY" Value="16"/>
<ItemData ItemOID="IT.ADQS.AVISIT" Value="2 WEEKS"/>
<ItemData ItemOID="IT.ADQS.AVISITN" Value="2"/>
<ItemData ItemOID="IT.ADQS.PARAM" Value="Delayed Word Recall"/>
<ItemData ItemOID="IT.ADQS.PARAMCD" Value="ACITM03"/>
<ItemData ItemOID="IT.ADQS.PARAMN" Value="3"/>
<ItemData ItemOID="IT.ADQS.AVAL" Value="7"/>
<ItemData ItemOID="IT.ADQS.QSSEQ" Value="178"/>
<ItemData ItemOID="IT.ADQS.QSCAT" Value="ALZHEIMER'S DISEASE ASSESSMENT SCALE"/>
<ItemData ItemOID="IT.ADQS.QSORRES" Value="7"/>
<ItemData ItemOID="IT.ADQS.QSSTRESC" Value="7"/>
<ItemData ItemOID="IT.ADQS.AGE" Value="51"/>
<ItemData ItemOID="IT.ADQS.SEX" Value="M"/>
<ItemData ItemOID="IT.ADQS.TRTEDT" Value="17624"/>
<ItemData ItemOID="IT.ADQS.TRTSDT" Value="17582"/>
<ItemData ItemOID="IT.ADQS.SAFFL" Value="Y"/>
</ItemGroupData>
<ItemGroupData ItemGroupOID="IG.ADQS" data:ItemGroupDataSeq="167">
<ItemData ItemOID="IT.ADQS.STUDYID" Value="SASCSTDEMODATA"/>
<ItemData ItemOID="IT.ADQS.USUBJID" Value="S001P005"/>
<ItemData ItemOID="IT.ADQS.TRTP" Value="TRT C"/>
<ItemData ItemOID="IT.ADQS.TRTPN" Value="3"/>
<ItemData ItemOID="IT.ADQS.ADT" Value="17612"/>
<ItemData ItemOID="IT.ADQS.ADY" Value="30"/>
<ItemData ItemOID="IT.ADQS.AVISIT" Value="4 WEEKS"/>
<ItemData ItemOID="IT.ADQS.AVISITN" Value="3"/>
<ItemData ItemOID="IT.ADQS.PARAM" Value="Delayed Word Recall"/>
<ItemData ItemOID="IT.ADQS.PARAMCD" Value="ACITM03"/>
<ItemData ItemOID="IT.ADQS.PARAMN" Value="3"/>
<ItemData ItemOID="IT.ADQS.AVAL" Value="10"/>
<ItemData ItemOID="IT.ADQS.QSSEQ" Value="179"/>
<ItemData ItemOID="IT.ADQS.QSCAT" Value="ALZHEIMER'S DISEASE ASSESSMENT SCALE"/>
<ItemData ItemOID="IT.ADQS.QSORRES" Value="10"/>
<ItemData ItemOID="IT.ADQS.QSSTRESC" Value="10"/>
<ItemData ItemOID="IT.ADQS.AGE" Value="51"/>
<ItemData ItemOID="IT.ADQS.SEX" Value="M"/>
<ItemData ItemOID="IT.ADQS.TRTEDT" Value="17624"/>
<ItemData ItemOID="IT.ADQS.TRTSDT" Value="17582"/>
<ItemData ItemOID="IT.ADQS.SAFFL" Value="Y"/>
</ItemGroupData>
<ItemGroupData ItemGroupOID="IG.ADQS" data:ItemGroupDataSeq="168">
<ItemData ItemOID="IT.ADQS.STUDYID" Value="SASCSTDEMODATA"/>
<ItemData ItemOID="IT.ADQS.USUBJID" Value="S001P005"/>
<ItemData ItemOID="IT.ADQS.TRTP" Value="TRT C"/>
<ItemData ItemOID="IT.ADQS.TRTPN" Value="3"/>
<ItemData ItemOID="IT.ADQS.ADT" Value="17627"/>
<ItemData ItemOID="IT.ADQS.ADY" Value="45"/>
<ItemData ItemOID="IT.ADQS.AVISIT" Value="6 WEEKS"/>
<ItemData ItemOID="IT.ADQS.AVISITN" Value="4"/>
<ItemData ItemOID="IT.ADQS.PARAM" Value="Delayed Word Recall"/>
<ItemData ItemOID="IT.ADQS.PARAMCD" Value="ACITM03"/>
<ItemData ItemOID="IT.ADQS.PARAMN" Value="3"/>
<ItemData ItemOID="IT.ADQS.AVAL" Value="10"/>
<ItemData ItemOID="IT.ADQS.QSSEQ" Value="180"/>
<ItemData ItemOID="IT.ADQS.QSCAT" Value="ALZHEIMER'S DISEASE ASSESSMENT SCALE"/>
<ItemData ItemOID="IT.ADQS.QSORRES" Value="10"/>
<ItemData ItemOID="IT.ADQS.QSSTRESC" Value="10"/>
<ItemData ItemOID="IT.ADQS.AGE" Value="51"/>
<ItemData ItemOID="IT.ADQS.SEX" Value="M"/>
<ItemData ItemOID="IT.ADQS.TRTEDT" Value="17624"/>
<ItemData ItemOID="IT.ADQS.TRTSDT" Value="17582"/>
<ItemData ItemOID="IT.ADQS.SAFFL" Value="Y"/>
</ItemGroupData>
<ItemGroupData ItemGroupOID="IG.ADQS" data:ItemGroupDataSeq="169">
<ItemData ItemOID="IT.ADQS.STUDYID" Value="SASCSTDEMODATA"/>
<ItemData ItemOID="IT.ADQS.USUBJID" Value="S001P005"/>
<ItemData ItemOID="IT.ADQS.TRTP" Value="TRT C"/>
<ItemData ItemOID="IT.ADQS.TRTPN" Value="3"/>
<ItemData ItemOID="IT.ADQS.ADT" Value="17583"/>
<ItemData ItemOID="IT.ADQS.ADY" Value="1"/>
<ItemData ItemOID="IT.ADQS.AVISIT" Value="RANDOMIZATION"/>
<ItemData ItemOID="IT.ADQS.AVISITN" Value="1"/>
<ItemData ItemOID="IT.ADQS.PARAM" Value="Commands"/>
<ItemData ItemOID="IT.ADQS.PARAMCD" Value="ACITM04"/>
<ItemData ItemOID="IT.ADQS.PARAMN" Value="4"/>
<ItemData ItemOID="IT.ADQS.AVAL" Value="0"/>
<ItemData ItemOID="IT.ADQS.QSSEQ" Value="165"/>
<ItemData ItemOID="IT.ADQS.QSCAT" Value="ALZHEIMER'S DISEASE ASSESSMENT SCALE"/>
<ItemData ItemOID="IT.ADQS.QSORRES" Value="0"/>
<ItemData ItemOID="IT.ADQS.QSSTRESC" Value="0"/>
<ItemData ItemOID="IT.ADQS.AGE" Value="51"/>
<ItemData ItemOID="IT.ADQS.SEX" Value="M"/>
<ItemData ItemOID="IT.ADQS.TRTEDT" Value="17624"/>
<ItemData ItemOID="IT.ADQS.TRTSDT" Value="17582"/>
<ItemData ItemOID="IT.ADQS.SAFFL" Value="Y"/>
</ItemGroupData>
<ItemGroupData ItemGroupOID="IG.ADQS" data:ItemGroupDataSeq="170">
<ItemData ItemOID="IT.ADQS.STUDYID" Value="SASCSTDEMODATA"/>
<ItemData ItemOID="IT.ADQS.USUBJID" Value="S001P005"/>
<ItemData ItemOID="IT.ADQS.TRTP" Value="TRT C"/>
<ItemData ItemOID="IT.ADQS.TRTPN" Value="3"/>
<ItemData ItemOID="IT.ADQS.ADT" Value="17598"/>
<ItemData ItemOID="IT.ADQS.ADY" Value="16"/>
<ItemData ItemOID="IT.ADQS.AVISIT" Value="2 WEEKS"/>
<ItemData ItemOID="IT.ADQS.AVISITN" Value="2"/>
<ItemData ItemOID="IT.ADQS.PARAM" Value="Commands"/>
<ItemData ItemOID="IT.ADQS.PARAMCD" Value="ACITM04"/>
<ItemData ItemOID="IT.ADQS.PARAMN" Value="4"/>
<ItemData ItemOID="IT.ADQS.AVAL" Value="0"/>
<ItemData ItemOID="IT.ADQS.QSSEQ" Value="166"/>
<ItemData ItemOID="IT.ADQS.QSCAT" Value="ALZHEIMER'S DISEASE ASSESSMENT SCALE"/>
<ItemData ItemOID="IT.ADQS.QSORRES" Value="0"/>
<ItemData ItemOID="IT.ADQS.QSSTRESC" Value="0"/>
<ItemData ItemOID="IT.ADQS.AGE" Value="51"/>
<ItemData ItemOID="IT.ADQS.SEX" Value="M"/>
<ItemData ItemOID="IT.ADQS.TRTEDT" Value="17624"/>
<ItemData ItemOID="IT.ADQS.TRTSDT" Value="17582"/>
<ItemData ItemOID="IT.ADQS.SAFFL" Value="Y"/>
</ItemGroupData>
<ItemGroupData ItemGroupOID="IG.ADQS" data:ItemGroupDataSeq="171">
<ItemData ItemOID="IT.ADQS.STUDYID" Value="SASCSTDEMODATA"/>
<ItemData ItemOID="IT.ADQS.USUBJID" Value="S001P005"/>
<ItemData ItemOID="IT.ADQS.TRTP" Value="TRT C"/>
<ItemData ItemOID="IT.ADQS.TRTPN" Value="3"/>
<ItemData ItemOID="IT.ADQS.ADT" Value="17612"/>
<ItemData ItemOID="IT.ADQS.ADY" Value="30"/>
<ItemData ItemOID="IT.ADQS.AVISIT" Value="4 WEEKS"/>
<ItemData ItemOID="IT.ADQS.AVISITN" Value="3"/>
<ItemData ItemOID="IT.ADQS.PARAM" Value="Commands"/>
<ItemData ItemOID="IT.ADQS.PARAMCD" Value="ACITM04"/>
<ItemData ItemOID="IT.ADQS.PARAMN" Value="4"/>
