<?xml version="1.0" encoding="UTF-8"?>
<!-- Produced from SAS data using SAS Clinical Standards Toolkit -->
<ODM
xmlns="http://www.cdisc.org/ns/odm/v1.3"
xmlns:data="http://www.cdisc.org/ns/Dataset-XML/v1.0"
ODMVersion="1.3.2"
FileType="Snapshot"
FileOID="SAS_CST_Define.ADSL"
PriorFileOID="SAS_CST_Define"
CreationDateTime="2014-10-29T11:15:13"
data:DatasetXMLVersion="1.0.0">
<ClinicalData StudyOID="SAS_CST_Define" MetaDataVersionOID="MDV.1">
<ItemGroupData ItemGroupOID="IG.ADSL" data:ItemGroupDataSeq="1">
<ItemData ItemOID="IT.ADSL.STUDYID" Value="SASCSTDEMODATA"/>
<ItemData ItemOID="IT.ADSL.USUBJID" Value="S001P001"/>
<ItemData ItemOID="IT.ADSL.SUBJID" Value="P001"/>
<ItemData ItemOID="IT.ADSL.RFSTDTC" Value="2008-02-07T16:20"/>
<ItemData ItemOID="IT.ADSL.RFENDTC" Value="2008-03-20"/>
<ItemData ItemOID="IT.ADSL.SITEID" Value="S001"/>
<ItemData ItemOID="IT.ADSL.AGE" Value="48"/>
<ItemData ItemOID="IT.ADSL.AGEU" Value="YEARS"/>
<ItemData ItemOID="IT.ADSL.SEX" Value="M"/>
<ItemData ItemOID="IT.ADSL.RACE" Value="CAUCASIAN"/>
<ItemData ItemOID="IT.ADSL.ARMCD" Value="B"/>
<ItemData ItemOID="IT.ADSL.ARM" Value="TRT B"/>
<ItemData ItemOID="IT.ADSL.VISIT1DT" Value="17569"/>
<ItemData ItemOID="IT.ADSL.RANDDT" Value="17569"/>
<ItemData ItemOID="IT.ADSL.COMPLT2" Value="Y"/>
<ItemData ItemOID="IT.ADSL.COMPLT4" Value="Y"/>
<ItemData ItemOID="IT.ADSL.COMPLT6" Value="N"/>
<ItemData ItemOID="IT.ADSL.TRTEDT" Value="17597"/>
<ItemData ItemOID="IT.ADSL.TRTSDT" Value="17569"/>
<ItemData ItemOID="IT.ADSL.DSDECOD" Value="LOST TO FOLLOW UP"/>
<ItemData ItemOID="IT.ADSL.FASFL" Value="Y"/>
<ItemData ItemOID="IT.ADSL.ITTFL" Value="Y"/>
<ItemData ItemOID="IT.ADSL.SAFFL" Value="Y"/>
<ItemData ItemOID="IT.ADSL.TRT01P" Value="TRT B"/>
<ItemData ItemOID="IT.ADSL.TRT01PN" Value="2"/>
</ItemGroupData>
<ItemGroupData ItemGroupOID="IG.ADSL" data:ItemGroupDataSeq="2">
<ItemData ItemOID="IT.ADSL.STUDYID" Value="SASCSTDEMODATA"/>
<ItemData ItemOID="IT.ADSL.USUBJID" Value="S001P002"/>
<ItemData ItemOID="IT.ADSL.SUBJID" Value="P002"/>
<ItemData ItemOID="IT.ADSL.RFSTDTC" Value="2008-02-11T15:10"/>
<ItemData ItemOID="IT.ADSL.RFENDTC" Value="2008-03-24T11:15"/>
<ItemData ItemOID="IT.ADSL.SITEID" Value="S001"/>
<ItemData ItemOID="IT.ADSL.AGE" Value="48"/>
<ItemData ItemOID="IT.ADSL.AGEU" Value="YEARS"/>
<ItemData ItemOID="IT.ADSL.SEX" Value="F"/>
<ItemData ItemOID="IT.ADSL.RACE" Value="BLACK"/>
<ItemData ItemOID="IT.ADSL.ARMCD" Value="C"/>
<ItemData ItemOID="IT.ADSL.ARM" Value="TRT C"/>
<ItemData ItemOID="IT.ADSL.VISIT1DT" Value="17573"/>
<ItemData ItemOID="IT.ADSL.RANDDT" Value="17573"/>
<ItemData ItemOID="IT.ADSL.COMPLT2" Value="Y"/>
<ItemData ItemOID="IT.ADSL.COMPLT4" Value="Y"/>
<ItemData ItemOID="IT.ADSL.COMPLT6" Value="N"/>
<ItemData ItemOID="IT.ADSL.TRTEDT" Value="17602"/>
<ItemData ItemOID="IT.ADSL.TRTSDT" Value="17573"/>
<ItemData ItemOID="IT.ADSL.DSDECOD" Value="LOST TO FOLLOW UP"/>
<ItemData ItemOID="IT.ADSL.FASFL" Value="Y"/>
<ItemData ItemOID="IT.ADSL.ITTFL" Value="Y"/>
<ItemData ItemOID="IT.ADSL.SAFFL" Value="Y"/>
<ItemData ItemOID="IT.ADSL.TRT01P" Value="TRT C"/>
<ItemData ItemOID="IT.ADSL.TRT01PN" Value="3"/>
</ItemGroupData>
<ItemGroupData ItemGroupOID="IG.ADSL" data:ItemGroupDataSeq="3">
<ItemData ItemOID="IT.ADSL.STUDYID" Value="SASCSTDEMODATA"/>
<ItemData ItemOID="IT.ADSL.USUBJID" Value="S001P003"/>
<ItemData ItemOID="IT.ADSL.SUBJID" Value="P003"/>
<ItemData ItemOID="IT.ADSL.RFSTDTC" Value="2008-02-14T10:50"/>
<ItemData ItemOID="IT.ADSL.RFENDTC" Value="2008-03-26T16:15"/>
<ItemData ItemOID="IT.ADSL.SITEID" Value="S001"/>
<ItemData ItemOID="IT.ADSL.AGE" Value="38"/>
<ItemData ItemOID="IT.ADSL.AGEU" Value="YEARS"/>
<ItemData ItemOID="IT.ADSL.SEX" Value="F"/>
<ItemData ItemOID="IT.ADSL.RACE" Value="ASIAN"/>
<ItemData ItemOID="IT.ADSL.ARMCD" Value="A"/>
<ItemData ItemOID="IT.ADSL.ARM" Value="TRT A"/>
<ItemData ItemOID="IT.ADSL.VISIT1DT" Value="17576"/>
<ItemData ItemOID="IT.ADSL.RANDDT" Value="17576"/>
<ItemData ItemOID="IT.ADSL.COMPLT2" Value="Y"/>
<ItemData ItemOID="IT.ADSL.COMPLT4" Value="N"/>
<ItemData ItemOID="IT.ADSL.COMPLT6" Value="Y"/>
<ItemData ItemOID="IT.ADSL.TRTEDT" Value="17617"/>
<ItemData ItemOID="IT.ADSL.TRTSDT" Value="17576"/>
<ItemData ItemOID="IT.ADSL.DSDECOD" Value="COMPLETED"/>
<ItemData ItemOID="IT.ADSL.FASFL" Value="Y"/>
<ItemData ItemOID="IT.ADSL.ITTFL" Value="Y"/>
<ItemData ItemOID="IT.ADSL.SAFFL" Value="Y"/>
<ItemData ItemOID="IT.ADSL.TRT01P" Value="TRT A"/>
<ItemData ItemOID="IT.ADSL.TRT01PN" Value="1"/>
</ItemGroupData>
<ItemGroupData ItemGroupOID="IG.ADSL" data:ItemGroupDataSeq="4">
<ItemData ItemOID="IT.ADSL.STUDYID" Value="SASCSTDEMODATA"/>
<ItemData ItemOID="IT.ADSL.USUBJID" Value="S001P004"/>
<ItemData ItemOID="IT.ADSL.SUBJID" Value="P004"/>
<ItemData ItemOID="IT.ADSL.RFSTDTC" Value="2008-02-15T12:05"/>
<ItemData ItemOID="IT.ADSL.RFENDTC" Value="2008-03-28"/>
<ItemData ItemOID="IT.ADSL.SITEID" Value="S001"/>
<ItemData ItemOID="IT.ADSL.AGE" Value="41"/>
<ItemData ItemOID="IT.ADSL.AGEU" Value="YEARS"/>
<ItemData ItemOID="IT.ADSL.SEX" Value="F"/>
<ItemData ItemOID="IT.ADSL.RACE" Value="OTHER"/>
<ItemData ItemOID="IT.ADSL.ARMCD" Value="A"/>
<ItemData ItemOID="IT.ADSL.ARM" Value="TRT A"/>
<ItemData ItemOID="IT.ADSL.VISIT1DT" Value="17577"/>
<ItemData ItemOID="IT.ADSL.RANDDT" Value="17577"/>
<ItemData ItemOID="IT.ADSL.COMPLT2" Value="Y"/>
<ItemData ItemOID="IT.ADSL.COMPLT4" Value="Y"/>
<ItemData ItemOID="IT.ADSL.COMPLT6" Value="N"/>
<ItemData ItemOID="IT.ADSL.TRTEDT" Value="17605"/>
<ItemData ItemOID="IT.ADSL.TRTSDT" Value="17577"/>
<ItemData ItemOID="IT.ADSL.DSDECOD" Value="LOST TO FOLLOW UP"/>
<ItemData ItemOID="IT.ADSL.FASFL" Value="Y"/>
<ItemData ItemOID="IT.ADSL.ITTFL" Value="Y"/>
<ItemData ItemOID="IT.ADSL.SAFFL" Value="Y"/>
<ItemData ItemOID="IT.ADSL.TRT01P" Value="TRT A"/>
<ItemData ItemOID="IT.ADSL.TRT01PN" Value="1"/>
</ItemGroupData>
<ItemGroupData ItemGroupOID="IG.ADSL" data:ItemGroupDataSeq="5">
<ItemData ItemOID="IT.ADSL.STUDYID" Value="SASCSTDEMODATA"/>
<ItemData ItemOID="IT.ADSL.USUBJID" Value="S001P005"/>
<ItemData ItemOID="IT.ADSL.SUBJID" Value="P005"/>
<ItemData ItemOID="IT.ADSL.RFSTDTC" Value="2008-02-20"/>
<ItemData ItemOID="IT.ADSL.RFENDTC" Value="2008-04-02T10:10"/>
<ItemData ItemOID="IT.ADSL.SITEID" Value="S001"/>
<ItemData ItemOID="IT.ADSL.AGE" Value="51"/>
<ItemData ItemOID="IT.ADSL.AGEU" Value="YEARS"/>
<ItemData ItemOID="IT.ADSL.SEX" Value="M"/>
<ItemData ItemOID="IT.ADSL.RACE" Value="BLACK"/>
<ItemData ItemOID="IT.ADSL.ARMCD" Value="C"/>
<ItemData ItemOID="IT.ADSL.ARM" Value="TRT C"/>
<ItemData ItemOID="IT.ADSL.VISIT1DT" Value="17582"/>
<ItemData ItemOID="IT.ADSL.RANDDT" Value="17582"/>
<ItemData ItemOID="IT.ADSL.COMPLT2" Value="Y"/>
<ItemData ItemOID="IT.ADSL.COMPLT4" Value="N"/>
<ItemData ItemOID="IT.ADSL.COMPLT6" Value="Y"/>
<ItemData ItemOID="IT.ADSL.TRTEDT" Value="17624"/>
<ItemData ItemOID="IT.ADSL.TRTSDT" Value="17582"/>
<ItemData ItemOID="IT.ADSL.DSDECOD" Value="COMPLETED"/>
<ItemData ItemOID="IT.ADSL.FASFL" Value="Y"/>
<ItemData ItemOID="IT.ADSL.ITTFL" Value="Y"/>
<ItemData ItemOID="IT.ADSL.SAFFL" Value="Y"/>
<ItemData ItemOID="IT.ADSL.TRT01P" Value="TRT C"/>
<ItemData ItemOID="IT.ADSL.TRT01PN" Value="3"/>
</ItemGroupData>
<ItemGroupData ItemGroupOID="IG.ADSL" data:ItemGroupDataSeq="6">
<ItemData ItemOID="IT.ADSL.STUDYID" Value="SASCSTDEMODATA"/>
<ItemData ItemOID="IT.ADSL.USUBJID" Value="S001P006"/>
<ItemData ItemOID="IT.ADSL.SUBJID" Value="P006"/>
<ItemData ItemOID="IT.ADSL.RFSTDTC" Value="2008-02-26T12:55"/>
<ItemData ItemOID="IT.ADSL.RFENDTC" Value="2008-04-08"/>
<ItemData ItemOID="IT.ADSL.SITEID" Value="S001"/>
<ItemData ItemOID="IT.ADSL.AGE" Value="40"/>
<ItemData ItemOID="IT.ADSL.AGEU" Value="YEARS"/>
<ItemData ItemOID="IT.ADSL.SEX" Value="M"/>
<ItemData ItemOID="IT.ADSL.RACE" Value="BLACK"/>
<ItemData ItemOID="IT.ADSL.ARMCD" Value="B"/>
<ItemData ItemOID="IT.ADSL.ARM" Value="TRT B"/>
<ItemData ItemOID="IT.ADSL.VISIT1DT" Value="17588"/>
<ItemData ItemOID="IT.ADSL.RANDDT" Value="17588"/>
<ItemData ItemOID="IT.ADSL.COMPLT2" Value="Y"/>
<ItemData ItemOID="IT.ADSL.COMPLT4" Value="N"/>
<ItemData ItemOID="IT.ADSL.COMPLT6" Value="N"/>
<ItemData ItemOID="IT.ADSL.TRTEDT" Value="17602"/>
<ItemData ItemOID="IT.ADSL.TRTSDT" Value="17588"/>
<ItemData ItemOID="IT.ADSL.DSDECOD" Value="LOST TO FOLLOW UP"/>
<ItemData ItemOID="IT.ADSL.FASFL" Value="Y"/>
<ItemData ItemOID="IT.ADSL.ITTFL" Value="Y"/>
<ItemData ItemOID="IT.ADSL.SAFFL" Value="Y"/>
<ItemData ItemOID="IT.ADSL.TRT01P" Value="TRT B"/>
<ItemData ItemOID="IT.ADSL.TRT01PN" Value="2"/>
</ItemGroupData>
<ItemGroupData ItemGroupOID="IG.ADSL" data:ItemGroupDataSeq="7">
<ItemData ItemOID="IT.ADSL.STUDYID" Value="SASCSTDEMODATA"/>
<ItemData ItemOID="IT.ADSL.USUBJID" Value="S001P007"/>
<ItemData ItemOID="IT.ADSL.SUBJID" Value="P007"/>
<ItemData ItemOID="IT.ADSL.RFSTDTC" Value="2008-02-28T12:45"/>
<ItemData ItemOID="IT.ADSL.RFENDTC" Value="2008-04-10T10:55"/>
<ItemData ItemOID="IT.ADSL.SITEID" Value="S001"/>
<ItemData ItemOID="IT.ADSL.AGE" Value="34"/>
<ItemData ItemOID="IT.ADSL.AGEU" Value="YEARS"/>
<ItemData ItemOID="IT.ADSL.SEX" Value="F"/>
<ItemData ItemOID="IT.ADSL.RACE" Value="BLACK"/>
<ItemData ItemOID="IT.ADSL.ARMCD" Value="C"/>
<ItemData ItemOID="IT.ADSL.ARM" Value="TRT C"/>
<ItemData ItemOID="IT.ADSL.VISIT1DT" Value="17590"/>
<ItemData ItemOID="IT.ADSL.RANDDT" Value="17590"/>
<ItemData ItemOID="IT.ADSL.COMPLT2" Value="Y"/>
<ItemData ItemOID="IT.ADSL.COMPLT4" Value="Y"/>
<ItemData ItemOID="IT.ADSL.COMPLT6" Value="Y"/>
<ItemData ItemOID="IT.ADSL.TRTEDT" Value="17632"/>
<ItemData ItemOID="IT.ADSL.TRTSDT" Value="17590"/>
<ItemData ItemOID="IT.ADSL.DSDECOD" Value="COMPLETED"/>
<ItemData ItemOID="IT.ADSL.FASFL" Value="Y"/>
<ItemData ItemOID="IT.ADSL.ITTFL" Value="Y"/>
<ItemData ItemOID="IT.ADSL.SAFFL" Value="Y"/>
<ItemData ItemOID="IT.ADSL.TRT01P" Value="TRT C"/>
<ItemData ItemOID="IT.ADSL.TRT01PN" Value="3"/>
</ItemGroupData>
<ItemGroupData ItemGroupOID="IG.ADSL" data:ItemGroupDataSeq="8">
<ItemData ItemOID="IT.ADSL.STUDYID" Value="SASCSTDEMODATA"/>
<ItemData ItemOID="IT.ADSL.USUBJID" Value="S001P008"/>
<ItemData ItemOID="IT.ADSL.SUBJID" Value="P008"/>
<ItemData ItemOID="IT.ADSL.SITEID" Value="S001"/>
<ItemData ItemOID="IT.ADSL.AGE" Value="34"/>
<ItemData ItemOID="IT.ADSL.AGEU" Value="YEARS"/>
<ItemData ItemOID="IT.ADSL.SEX" Value="F"/>
<ItemData ItemOID="IT.ADSL.RACE" Value="HISPANIC"/>
<ItemData ItemOID="IT.ADSL.ARMCD" Value="C"/>
<ItemData ItemOID="IT.ADSL.ARM" Value="TRT C"/>
<ItemData ItemOID="IT.ADSL.VISIT1DT" Value="17591"/>
<ItemData ItemOID="IT.ADSL.RANDDT" Value="17591"/>
<ItemData ItemOID="IT.ADSL.COMPLT2" Value="Y"/>
<ItemData ItemOID="IT.ADSL.COMPLT4" Value="N"/>
<ItemData ItemOID="IT.ADSL.COMPLT6" Value="N"/>
<ItemData ItemOID="IT.ADSL.TRTEDT" Value="17604"/>
<ItemData ItemOID="IT.ADSL.TRTSDT" Value="17591"/>
<ItemData ItemOID="IT.ADSL.DSDECOD" Value="PHYSICIAN DECISION"/>
<ItemData ItemOID="IT.ADSL.FASFL" Value="Y"/>
<ItemData ItemOID="IT.ADSL.ITTFL" Value="Y"/>
<ItemData ItemOID="IT.ADSL.SAFFL" Value="Y"/>
<ItemData ItemOID="IT.ADSL.TRT01P" Value="TRT C"/>
<ItemData ItemOID="IT.ADSL.TRT01PN" Value="3"/>
</ItemGroupData>
<ItemGroupData ItemGroupOID="IG.ADSL" data:ItemGroupDataSeq="9">
<ItemData ItemOID="IT.ADSL.STUDYID" Value="SASCSTDEMODATA"/>
<ItemData ItemOID="IT.ADSL.USUBJID" Value="S001P009"/>
<ItemData ItemOID="IT.ADSL.SUBJID" Value="P009"/>
<ItemData ItemOID="IT.ADSL.SITEID" Value="S001"/>
<ItemData ItemOID="IT.ADSL.AGE" Value="47"/>
<ItemData ItemOID="IT.ADSL.AGEU" Value="YEARS"/>
<ItemData ItemOID="IT.ADSL.SEX" Value="M"/>
<ItemData ItemOID="IT.ADSL.RACE" Value="CAUCASIAN"/>
<ItemData ItemOID="IT.ADSL.ARMCD" Value="SCRNFAIL"/>
<ItemData ItemOID="IT.ADSL.ARM" Value="SCREEN FAILURE"/>
<ItemData ItemOID="IT.ADSL.VISIT1DT" Value="17594"/>
<ItemData ItemOID="IT.ADSL.RANDDT" Value="17594"/>
<ItemData ItemOID="IT.ADSL.COMPLT2" Value="N"/>
<ItemData ItemOID="IT.ADSL.COMPLT4" Value="N"/>
<ItemData ItemOID="IT.ADSL.COMPLT6" Value="N"/>
<ItemData ItemOID="IT.ADSL.DSDECOD" Value="SCREEN FAILURE"/>
<ItemData ItemOID="IT.ADSL.FASFL" Value="N"/>
<ItemData ItemOID="IT.ADSL.ITTFL" Value="Y"/>
<ItemData ItemOID="IT.ADSL.SAFFL" Value="N"/>
<ItemData ItemOID="IT.ADSL.TRT01P" Value="SCREEN FAILURE"/>
<ItemData ItemOID="IT.ADSL.TRT01PN" Value="0"/>
</ItemGroupData>
<ItemGroupData ItemGroupOID="IG.ADSL" data:ItemGroupDataSeq="10">
<ItemData ItemOID="IT.ADSL.STUDYID" Value="SASCSTDEMODATA"/>
<ItemData ItemOID="IT.ADSL.USUBJID" Value="S001P010"/>
<ItemData ItemOID="IT.ADSL.SUBJID" Value="P010"/>
<ItemData ItemOID="IT.ADSL.RFSTDTC" Value="2008-03-04T09:20"/>
<ItemData ItemOID="IT.ADSL.RFENDTC" Value="2008-04-15T14:30"/>
<ItemData ItemOID="IT.ADSL.SITEID" Value="S001"/>
<ItemData ItemOID="IT.ADSL.AGE" Value="27"/>
<ItemData ItemOID="IT.ADSL.AGEU" Value="YEARS"/>
<ItemData ItemOID="IT.ADSL.SEX" Value="M"/>
<ItemData ItemOID="IT.ADSL.RACE" Value="BLACK"/>
<ItemData ItemOID="IT.ADSL.ARMCD" Value="A"/>
<ItemData ItemOID="IT.ADSL.ARM" Value="TRT A"/>
<ItemData ItemOID="IT.ADSL.VISIT1DT" Value="17595"/>
<ItemData ItemOID="IT.ADSL.RANDDT" Value="17595"/>
<ItemData ItemOID="IT.ADSL.COMPLT2" Value="Y"/>
<ItemData ItemOID="IT.ADSL.COMPLT4" Value="Y"/>
<ItemData ItemOID="IT.ADSL.COMPLT6" Value="Y"/>
<ItemData ItemOID="IT.ADSL.TRTEDT" Value="17637"/>
<ItemData ItemOID="IT.ADSL.TRTSDT" Value="17595"/>
<ItemData ItemOID="IT.ADSL.DSDECOD" Value="COMPLETED"/>
<ItemData ItemOID="IT.ADSL.FASFL" Value="Y"/>
<ItemData ItemOID="IT.ADSL.ITTFL" Value="Y"/>
<ItemData ItemOID="IT.ADSL.SAFFL" Value="Y"/>
<ItemData ItemOID="IT.ADSL.TRT01P" Value="TRT A"/>
<ItemData ItemOID="IT.ADSL.TRT01PN" Value="1"/>
</ItemGroupData>
<ItemGroupData ItemGroupOID="IG.ADSL" data:ItemGroupDataSeq="11">
<ItemData ItemOID="IT.ADSL.STUDYID" Value="SASCSTDEMODATA"/>
<ItemData ItemOID="IT.ADSL.USUBJID" Value="S001P011"/>
<ItemData ItemOID="IT.ADSL.SUBJID" Value="P011"/>
<ItemData ItemOID="IT.ADSL.RFSTDTC" Value="2008-03-07"/>
<ItemData ItemOID="IT.ADSL.RFENDTC" Value="2008-04-18"/>
<ItemData ItemOID="IT.ADSL.SITEID" Value="S001"/>
<ItemData ItemOID="IT.ADSL.AGE" Value="53"/>
<ItemData ItemOID="IT.ADSL.AGEU" Value="YEARS"/>
<ItemData ItemOID="IT.ADSL.SEX" Value="M"/>
<ItemData ItemOID="IT.ADSL.RACE" Value="HISPANIC"/>
<ItemData ItemOID="IT.ADSL.ARMCD" Value="C"/>
<ItemData ItemOID="IT.ADSL.ARM" Value="TRT C"/>
<ItemData ItemOID="IT.ADSL.VISIT1DT" Value="17598"/>
<ItemData ItemOID="IT.ADSL.RANDDT" Value="17598"/>
<ItemData ItemOID="IT.ADSL.COMPLT2" Value="Y"/>
<ItemData ItemOID="IT.ADSL.COMPLT4" Value="Y"/>
<ItemData ItemOID="IT.ADSL.COMPLT6" Value="N"/>
<ItemData ItemOID="IT.ADSL.TRTEDT" Value="17625"/>
<ItemData ItemOID="IT.ADSL.TRTSDT" Value="17598"/>
<ItemData ItemOID="IT.ADSL.DSDECOD" Value="PHYSICIAN DECISION"/>
<ItemData ItemOID="IT.ADSL.FASFL" Value="Y"/>
<ItemData ItemOID="IT.ADSL.ITTFL" Value="Y"/>
<ItemData ItemOID="IT.ADSL.SAFFL" Value="Y"/>
<ItemData ItemOID="IT.ADSL.TRT01P" Value="TRT C"/>
<ItemData ItemOID="IT.ADSL.TRT01PN" Value="3"/>
</ItemGroupData>
<ItemGroupData ItemGroupOID="IG.ADSL" data:ItemGroupDataSeq="12">
<ItemData ItemOID="IT.ADSL.STUDYID" Value="SASCSTDEMODATA"/>
<ItemData ItemOID="IT.ADSL.USUBJID" Value="S001P012"/>
<ItemData ItemOID="IT.ADSL.SUBJID" Value="P012"/>
<ItemData ItemOID="IT.ADSL.RFSTDTC" Value="2008-03-12T15:40"/>
<ItemData ItemOID="IT.ADSL.RFENDTC" Value="2008-04-23T16:05"/>
<ItemData ItemOID="IT.ADSL.SITEID" Value="S001"/>
<ItemData ItemOID="IT.ADSL.AGE" Value="47"/>
<ItemData ItemOID="IT.ADSL.AGEU" Value="YEARS"/>
<ItemData ItemOID="IT.ADSL.SEX" Value="F"/>
<ItemData ItemOID="IT.ADSL.RACE" Value="CAUCASIAN"/>
<ItemData ItemOID="IT.ADSL.ARMCD" Value="B"/>
<ItemData ItemOID="IT.ADSL.ARM" Value="TRT B"/>
<ItemData ItemOID="IT.ADSL.VISIT1DT" Value="17603"/>
<ItemData ItemOID="IT.ADSL.RANDDT" Value="17603"/>
<ItemData ItemOID="IT.ADSL.COMPLT2" Value="N"/>
<ItemData ItemOID="IT.ADSL.COMPLT4" Value="N"/>
<ItemData ItemOID="IT.ADSL.COMPLT6" Value="Y"/>
<ItemData ItemOID="IT.ADSL.TRTEDT" Value="17645"/>
<ItemData ItemOID="IT.ADSL.TRTSDT" Value="17603"/>
<ItemData ItemOID="IT.ADSL.DSDECOD" Value="COMPLETED"/>
<ItemData ItemOID="IT.ADSL.FASFL" Value="Y"/>
<ItemData ItemOID="IT.ADSL.ITTFL" Value="Y"/>
<ItemData ItemOID="IT.ADSL.SAFFL" Value="Y"/>
<ItemData ItemOID="IT.ADSL.TRT01P" Value="TRT B"/>
<ItemData ItemOID="IT.ADSL.TRT01PN" Value="2"/>
</ItemGroupData>
<ItemGroupData ItemGroupOID="IG.ADSL" data:ItemGroupDataSeq="13">
<ItemData ItemOID="IT.ADSL.STUDYID" Value="SASCSTDEMODATA"/>
<ItemData ItemOID="IT.ADSL.USUBJID" Value="S001P013"/>
<ItemData ItemOID="IT.ADSL.SUBJID" Value="P013"/>
<ItemData ItemOID="IT.ADSL.RFSTDTC" Value="2008-03-12T14:05"/>
<ItemData ItemOID="IT.ADSL.RFENDTC" Value="2008-04-23"/>
<ItemData ItemOID="IT.ADSL.SITEID" Value="S001"/>
<ItemData ItemOID="IT.ADSL.AGE" Value="36"/>
<ItemData ItemOID="IT.ADSL.AGEU" Value="YEARS"/>
<ItemData ItemOID="IT.ADSL.SEX" Value="F"/>
<ItemData ItemOID="IT.ADSL.RACE" Value="CAUCASIAN"/>
<ItemData ItemOID="IT.ADSL.ARMCD" Value="A"/>
<ItemData ItemOID="IT.ADSL.ARM" Value="TRT A"/>
<ItemData ItemOID="IT.ADSL.VISIT1DT" Value="17603"/>
<ItemData ItemOID="IT.ADSL.RANDDT" Value="17603"/>
<ItemData ItemOID="IT.ADSL.COMPLT2" Value="Y"/>
<ItemData ItemOID="IT.ADSL.COMPLT4" Value="Y"/>
<ItemData ItemOID="IT.ADSL.COMPLT6" Value="Y"/>
<ItemData ItemOID="IT.ADSL.TRTEDT" Value="17645"/>
<ItemData ItemOID="IT.ADSL.TRTSDT" Value="17603"/>
<ItemData ItemOID="IT.ADSL.DSDECOD" Value="COMPLETED"/>
<ItemData ItemOID="IT.ADSL.FASFL" Value="Y"/>
<ItemData ItemOID="IT.ADSL.ITTFL" Value="Y"/>
<ItemData ItemOID="IT.ADSL.SAFFL" Value="Y"/>
<ItemData ItemOID="IT.ADSL.TRT01P" Value="TRT A"/>
<ItemData ItemOID="IT.ADSL.TRT01PN" Value="1"/>
</ItemGroupData>
<ItemGroupData ItemGroupOID="IG.ADSL" data:ItemGroupDataSeq="14">
<ItemData ItemOID="IT.ADSL.STUDYID" Value="SASCSTDEMODATA"/>
<ItemData ItemOID="IT.ADSL.USUBJID" Value="S001P014"/>
<ItemData ItemOID="IT.ADSL.SUBJID" Value="P014"/>
<ItemData ItemOID="IT.ADSL.RFSTDTC" Value="2008-03-14T13:40"/>
<ItemData ItemOID="IT.ADSL.RFENDTC" Value="2008-04-25"/>
<ItemData ItemOID="IT.ADSL.SITEID" Value="S001"/>
<ItemData ItemOID="IT.ADSL.AGE" Value="32"/>
<ItemData ItemOID="IT.ADSL.AGEU" Value="YEARS"/>
<ItemData ItemOID="IT.ADSL.SEX" Value="M"/>
<ItemData ItemOID="IT.ADSL.RACE" Value="CAUCASIAN"/>
<ItemData ItemOID="IT.ADSL.ARMCD" Value="B"/>
<ItemData ItemOID="IT.ADSL.ARM" Value="TRT B"/>
<ItemData ItemOID="IT.ADSL.VISIT1DT" Value="17605"/>
<ItemData ItemOID="IT.ADSL.RANDDT" Value="17605"/>
<ItemData ItemOID="IT.ADSL.COMPLT2" Value="Y"/>
<ItemData ItemOID="IT.ADSL.COMPLT4" Value="N"/>
<ItemData ItemOID="IT.ADSL.COMPLT6" Value="Y"/>
<ItemData ItemOID="IT.ADSL.TRTEDT" Value="17647"/>
<ItemData ItemOID="IT.ADSL.TRTSDT" Value="17605"/>
<ItemData ItemOID="IT.ADSL.DSDECOD" Value="COMPLETED"/>
<ItemData ItemOID="IT.ADSL.FASFL" Value="Y"/>
<ItemData ItemOID="IT.ADSL.ITTFL" Value="Y"/>
<ItemData ItemOID="IT.ADSL.SAFFL" Value="Y"/>
<ItemData ItemOID="IT.ADSL.TRT01P" Value="TRT B"/>
<ItemData ItemOID="IT.ADSL.TRT01PN" Value="2"/>
</ItemGroupData>
<ItemGroupData ItemGroupOID="IG.ADSL" data:ItemGroupDataSeq="15">
<ItemData ItemOID="IT.ADSL.STUDYID" Value="SASCSTDEMODATA"/>
<ItemData ItemOID="IT.ADSL.USUBJID" Value="S001P015"/>
<ItemData ItemOID="IT.ADSL.SUBJID" Value="P015"/>
<ItemData ItemOID="IT.ADSL.RFSTDTC" Value="2008-03-20"/>
<ItemData ItemOID="IT.ADSL.RFENDTC" Value="2008-05-01"/>
<ItemData ItemOID="IT.ADSL.SITEID" Value="S001"/>
<ItemData ItemOID="IT.ADSL.AGE" Value="31"/>
<ItemData ItemOID="IT.ADSL.AGEU" Value="YEARS"/>
<ItemData ItemOID="IT.ADSL.SEX" Value="M"/>
<ItemData ItemOID="IT.ADSL.RACE" Value="OTHER"/>
<ItemData ItemOID="IT.ADSL.ARMCD" Value="C"/>
<ItemData ItemOID="IT.ADSL.ARM" Value="TRT C"/>
<ItemData ItemOID="IT.ADSL.VISIT1DT" Value="17611"/>
<ItemData ItemOID="IT.ADSL.RANDDT" Value="17611"/>
<ItemData ItemOID="IT.ADSL.COMPLT2" Value="Y"/>
<ItemData ItemOID="IT.ADSL.COMPLT4" Value="N"/>
<ItemData ItemOID="IT.ADSL.COMPLT6" Value="N"/>
<ItemData ItemOID="IT.ADSL.DSDECOD" Value="PHYSICIAN DECISION"/>
<ItemData ItemOID="IT.ADSL.FASFL" Value="Y"/>
<ItemData ItemOID="IT.ADSL.ITTFL" Value="Y"/>
<ItemData ItemOID="IT.ADSL.SAFFL" Value="N"/>
<ItemData ItemOID="IT.ADSL.TRT01P" Value="TRT C"/>
<ItemData ItemOID="IT.ADSL.TRT01PN" Value="3"/>
</ItemGroupData>
<ItemGroupData ItemGroupOID="IG.ADSL" data:ItemGroupDataSeq="16">
<ItemData ItemOID="IT.ADSL.STUDYID" Value="SASCSTDEMODATA"/>
<ItemData ItemOID="IT.ADSL.USUBJID" Value="S002P001"/>
<ItemData ItemOID="IT.ADSL.SUBJID" Value="P001"/>
<ItemData ItemOID="IT.ADSL.RFSTDTC" Value="2008-03-07T13:35"/>
<ItemData ItemOID="IT.ADSL.RFENDTC" Value="2008-04-18T11:25"/>
<ItemData ItemOID="IT.ADSL.SITEID" Value="S002"/>
<ItemData ItemOID="IT.ADSL.AGE" Value="53"/>
<ItemData ItemOID="IT.ADSL.AGEU" Value="YEARS"/>
<ItemData ItemOID="IT.ADSL.SEX" Value="F"/>
<ItemData ItemOID="IT.ADSL.RACE" Value="ASIAN"/>
<ItemData ItemOID="IT.ADSL.ARMCD" Value="A"/>
<ItemData ItemOID="IT.ADSL.ARM" Value="TRT A"/>
<ItemData ItemOID="IT.ADSL.VISIT1DT" Value="17598"/>
<ItemData ItemOID="IT.ADSL.RANDDT" Value="17598"/>
<ItemData ItemOID="IT.ADSL.COMPLT2" Value="Y"/>
<ItemData ItemOID="IT.ADSL.COMPLT4" Value="Y"/>
<ItemData ItemOID="IT.ADSL.COMPLT6" Value="Y"/>
<ItemData ItemOID="IT.ADSL.TRTEDT" Value="17640"/>
<ItemData ItemOID="IT.ADSL.TRTSDT" Value="17598"/>
<ItemData ItemOID="IT.ADSL.DSDECOD" Value="COMPLETED"/>
<ItemData ItemOID="IT.ADSL.FASFL" Value="Y"/>
<ItemData ItemOID="IT.ADSL.ITTFL" Value="Y"/>
<ItemData ItemOID="IT.ADSL.SAFFL" Value="Y"/>
<ItemData ItemOID="IT.ADSL.TRT01P" Value="TRT A"/>
<ItemData ItemOID="IT.ADSL.TRT01PN" Value="1"/>
</ItemGroupData>
<ItemGroupData ItemGroupOID="IG.ADSL" data:ItemGroupDataSeq="17">
<ItemData ItemOID="IT.ADSL.STUDYID" Value="SASCSTDEMODATA"/>
<ItemData ItemOID="IT.ADSL.USUBJID" Value="S002P002"/>
<ItemData ItemOID="IT.ADSL.SUBJID" Value="P002"/>
<ItemData ItemOID="IT.ADSL.RFSTDTC" Value="2008-03-07"/>
<ItemData ItemOID="IT.ADSL.RFENDTC" Value="2008-04-18T16:15"/>
<ItemData ItemOID="IT.ADSL.SITEID" Value="S002"/>
<ItemData ItemOID="IT.ADSL.AGE" Value="47"/>
<ItemData ItemOID="IT.ADSL.AGEU" Value="YEARS"/>
<ItemData ItemOID="IT.ADSL.SEX" Value="F"/>
<ItemData ItemOID="IT.ADSL.RACE" Value="ASIAN"/>
<ItemData ItemOID="IT.ADSL.ARMCD" Value="A"/>
<ItemData ItemOID="IT.ADSL.ARM" Value="TRT A"/>
<ItemData ItemOID="IT.ADSL.VISIT1DT" Value="17598"/>
<ItemData ItemOID="IT.ADSL.RANDDT" Value="17598"/>
<ItemData ItemOID="IT.ADSL.COMPLT2" Value="Y"/>
<ItemData ItemOID="IT.ADSL.COMPLT4" Value="Y"/>
<ItemData ItemOID="IT.ADSL.COMPLT6" Value="Y"/>
<ItemData ItemOID="IT.ADSL.TRTEDT" Value="17640"/>
<ItemData ItemOID="IT.ADSL.TRTSDT" Value="17598"/>
<ItemData ItemOID="IT.ADSL.DSDECOD" Value="COMPLETED"/>
<ItemData ItemOID="IT.ADSL.FASFL" Value="Y"/>
<ItemData ItemOID="IT.ADSL.ITTFL" Value="Y"/>
<ItemData ItemOID="IT.ADSL.SAFFL" Value="Y"/>
<ItemData ItemOID="IT.ADSL.TRT01P" Value="TRT A"/>
<ItemData ItemOID="IT.ADSL.TRT01PN" Value="1"/>
</ItemGroupData>
<ItemGroupData ItemGroupOID="IG.ADSL" data:ItemGroupDataSeq="18">
<ItemData ItemOID="IT.ADSL.STUDYID" Value="SASCSTDEMODATA"/>
<ItemData ItemOID="IT.ADSL.USUBJID" Value="S002P003"/>
<ItemData ItemOID="IT.ADSL.SUBJID" Value="P003"/>
<ItemData ItemOID="IT.ADSL.RFSTDTC" Value="2008-03-07T14:15"/>
<ItemData ItemOID="IT.ADSL.RFENDTC" Value="2008-04-18T09:35"/>
<ItemData ItemOID="IT.ADSL.SITEID" Value="S002"/>
<ItemData ItemOID="IT.ADSL.AGE" Value="43"/>
<ItemData ItemOID="IT.ADSL.AGEU" Value="YEARS"/>
<ItemData ItemOID="IT.ADSL.SEX" Value="M"/>
<ItemData ItemOID="IT.ADSL.RACE" Value="CAUCASIAN"/>
<ItemData ItemOID="IT.ADSL.ARMCD" Value="B"/>
<ItemData ItemOID="IT.ADSL.ARM" Value="TRT B"/>
<ItemData ItemOID="IT.ADSL.VISIT1DT" Value="17598"/>
<ItemData ItemOID="IT.ADSL.RANDDT" Value="17598"/>
<ItemData ItemOID="IT.ADSL.COMPLT2" Value="Y"/>
<ItemData ItemOID="IT.ADSL.COMPLT4" Value="Y"/>
<ItemData ItemOID="IT.ADSL.COMPLT6" Value="N"/>
<ItemData ItemOID="IT.ADSL.TRTEDT" Value="17626"/>
<ItemData ItemOID="IT.ADSL.TRTSDT" Value="17598"/>
<ItemData ItemOID="IT.ADSL.DSDECOD" Value="LOST TO FOLLOW UP"/>
<ItemData ItemOID="IT.ADSL.FASFL" Value="Y"/>
<ItemData ItemOID="IT.ADSL.ITTFL" Value="Y"/>
<ItemData ItemOID="IT.ADSL.SAFFL" Value="Y"/>
<ItemData ItemOID="IT.ADSL.TRT01P" Value="TRT B"/>
<ItemData ItemOID="IT.ADSL.TRT01PN" Value="2"/>
</ItemGroupData>
<ItemGroupData ItemGroupOID="IG.ADSL" data:ItemGroupDataSeq="19">
<ItemData ItemOID="IT.ADSL.STUDYID" Value="SASCSTDEMODATA"/>
<ItemData ItemOID="IT.ADSL.USUBJID" Value="S002P004"/>
<ItemData ItemOID="IT.ADSL.SUBJID" Value="P004"/>
<ItemData ItemOID="IT.ADSL.RFSTDTC" Value="2008-03-07"/>
<ItemData ItemOID="IT.ADSL.RFENDTC" Value="2008-04-18T15:30"/>
<ItemData ItemOID="IT.ADSL.SITEID" Value="S002"/>
<ItemData ItemOID="IT.ADSL.AGE" Value="48"/>
<ItemData ItemOID="IT.ADSL.AGEU" Value="YEARS"/>
<ItemData ItemOID="IT.ADSL.SEX" Value="M"/>
<ItemData ItemOID="IT.ADSL.RACE" Value="ASIAN"/>
<ItemData ItemOID="IT.ADSL.ARMCD" Value="B"/>
<ItemData ItemOID="IT.ADSL.ARM" Value="TRT B"/>
<ItemData ItemOID="IT.ADSL.VISIT1DT" Value="17598"/>
<ItemData ItemOID="IT.ADSL.RANDDT" Value="17598"/>
<ItemData ItemOID="IT.ADSL.COMPLT2" Value="Y"/>
<ItemData ItemOID="IT.ADSL.COMPLT4" Value="Y"/>
<ItemData ItemOID="IT.ADSL.COMPLT6" Value="Y"/>
<ItemData ItemOID="IT.ADSL.TRTEDT" Value="17640"/>
<ItemData ItemOID="IT.ADSL.TRTSDT" Value="17598"/>
<ItemData ItemOID="IT.ADSL.DSDECOD" Value="COMPLETED"/>
<ItemData ItemOID="IT.ADSL.FASFL" Value="Y"/>
<ItemData ItemOID="IT.ADSL.ITTFL" Value="Y"/>
<ItemData ItemOID="IT.ADSL.SAFFL" Value="Y"/>
<ItemData ItemOID="IT.ADSL.TRT01P" Value="TRT B"/>
<ItemData ItemOID="IT.ADSL.TRT01PN" Value="2"/>
</ItemGroupData>
<ItemGroupData ItemGroupOID="IG.ADSL" data:ItemGroupDataSeq="20">
<ItemData ItemOID="IT.ADSL.STUDYID" Value="SASCSTDEMODATA"/>
<ItemData ItemOID="IT.ADSL.USUBJID" Value="S002P005"/>
<ItemData ItemOID="IT.ADSL.SUBJID" Value="P005"/>
<ItemData ItemOID="IT.ADSL.RFSTDTC" Value="2008-03-10T13:30"/>
<ItemData ItemOID="IT.ADSL.RFENDTC" Value="2008-04-21T12:10"/>
<ItemData ItemOID="IT.ADSL.SITEID" Value="S002"/>
<ItemData ItemOID="IT.ADSL.AGE" Value="46"/>
<ItemData ItemOID="IT.ADSL.AGEU" Value="YEARS"/>
<ItemData ItemOID="IT.ADSL.SEX" Value="F"/>
<ItemData ItemOID="IT.ADSL.RACE" Value="HISPANIC"/>
<ItemData ItemOID="IT.ADSL.ARMCD" Value="A"/>
<ItemData ItemOID="IT.ADSL.ARM" Value="TRT A"/>
<ItemData ItemOID="IT.ADSL.VISIT1DT" Value="17601"/>
<ItemData ItemOID="IT.ADSL.RANDDT" Value="17601"/>
<ItemData ItemOID="IT.ADSL.COMPLT2" Value="Y"/>
<ItemData ItemOID="IT.ADSL.COMPLT4" Value="Y"/>
<ItemData ItemOID="IT.ADSL.COMPLT6" Value="N"/>
<ItemData ItemOID="IT.ADSL.TRTEDT" Value="17629"/>
<ItemData ItemOID="IT.ADSL.TRTSDT" Value="17601"/>
<ItemData ItemOID="IT.ADSL.DSDECOD" Value="LOST TO FOLLOW UP"/>
<ItemData ItemOID="IT.ADSL.FASFL" Value="Y"/>
<ItemData ItemOID="IT.ADSL.ITTFL" Value="Y"/>
<ItemData ItemOID="IT.ADSL.SAFFL" Value="Y"/>
<ItemData ItemOID="IT.ADSL.TRT01P" Value="TRT A"/>
<ItemData ItemOID="IT.ADSL.TRT01PN" Value="1"/>
</ItemGroupData>
<ItemGroupData ItemGroupOID="IG.ADSL" data:ItemGroupDataSeq="21">
<ItemData ItemOID="IT.ADSL.STUDYID" Value="SASCSTDEMODATA"/>
<ItemData ItemOID="IT.ADSL.USUBJID" Value="S002P006"/>
<ItemData ItemOID="IT.ADSL.SUBJID" Value="P006"/>
<ItemData ItemOID="IT.ADSL.RFSTDTC" Value="2008-03-12"/>
<ItemData ItemOID="IT.ADSL.RFENDTC" Value="2008-04-23"/>
<ItemData ItemOID="IT.ADSL.SITEID" Value="S002"/>
<ItemData ItemOID="IT.ADSL.AGE" Value="32"/>
<ItemData ItemOID="IT.ADSL.AGEU" Value="YEARS"/>
<ItemData ItemOID="IT.ADSL.SEX" Value="F"/>
<ItemData ItemOID="IT.ADSL.RACE" Value="CAUCASIAN"/>
<ItemData ItemOID="IT.ADSL.ARMCD" Value="C"/>
<ItemData ItemOID="IT.ADSL.ARM" Value="TRT C"/>
<ItemData ItemOID="IT.ADSL.VISIT1DT" Value="17603"/>
<ItemData ItemOID="IT.ADSL.RANDDT" Value="17603"/>
<ItemData ItemOID="IT.ADSL.COMPLT2" Value="Y"/>
<ItemData ItemOID="IT.ADSL.COMPLT4" Value="N"/>
<ItemData ItemOID="IT.ADSL.COMPLT6" Value="Y"/>
<ItemData ItemOID="IT.ADSL.TRTEDT" Value="17645"/>
<ItemData ItemOID="IT.ADSL.TRTSDT" Value="17603"/>
<ItemData ItemOID="IT.ADSL.DSDECOD" Value="COMPLETED"/>
<ItemData ItemOID="IT.ADSL.FASFL" Value="Y"/>
<ItemData ItemOID="IT.ADSL.ITTFL" Value="Y"/>
<ItemData ItemOID="IT.ADSL.SAFFL" Value="Y"/>
<ItemData ItemOID="IT.ADSL.TRT01P" Value="TRT C"/>
<ItemData ItemOID="IT.ADSL.TRT01PN" Value="3"/>
</ItemGroupData>
<ItemGroupData ItemGroupOID="IG.ADSL" data:ItemGroupDataSeq="22">
<ItemData ItemOID="IT.ADSL.STUDYID" Value="SASCSTDEMODATA"/>
<ItemData ItemOID="IT.ADSL.USUBJID" Value="S002P007"/>
<ItemData ItemOID="IT.ADSL.SUBJID" Value="P007"/>
<ItemData ItemOID="IT.ADSL.RFSTDTC" Value="2008-03-13T16:05"/>
<ItemData ItemOID="IT.ADSL.RFENDTC" Value="2008-04-24T12:00"/>
<ItemData ItemOID="IT.ADSL.SITEID" Value="S002"/>
<ItemData ItemOID="IT.ADSL.AGE" Value="49"/>
<ItemData ItemOID="IT.ADSL.AGEU" Value="YEARS"/>
<ItemData ItemOID="IT.ADSL.SEX" Value="F"/>
<ItemData ItemOID="IT.ADSL.RACE" Value="BLACK"/>
<ItemData ItemOID="IT.ADSL.ARMCD" Value="A"/>
<ItemData ItemOID="IT.ADSL.ARM" Value="TRT A"/>
<ItemData ItemOID="IT.ADSL.VISIT1DT" Value="17604"/>
<ItemData ItemOID="IT.ADSL.RANDDT" Value="17604"/>
<ItemData ItemOID="IT.ADSL.COMPLT2" Value="Y"/>
<ItemData ItemOID="IT.ADSL.COMPLT4" Value="Y"/>
<ItemData ItemOID="IT.ADSL.COMPLT6" Value="N"/>
<ItemData ItemOID="IT.ADSL.TRTEDT" Value="17632"/>
<ItemData ItemOID="IT.ADSL.TRTSDT" Value="17604"/>
<ItemData ItemOID="IT.ADSL.DSDECOD" Value="LOST TO FOLLOW UP"/>
<ItemData ItemOID="IT.ADSL.FASFL" Value="Y"/>
<ItemData ItemOID="IT.ADSL.ITTFL" Value="Y"/>
<ItemData ItemOID="IT.ADSL.SAFFL" Value="Y"/>
<ItemData ItemOID="IT.ADSL.TRT01P" Value="TRT A"/>
<ItemData ItemOID="IT.ADSL.TRT01PN" Value="1"/>
</ItemGroupData>
<ItemGroupData ItemGroupOID="IG.ADSL" data:ItemGroupDataSeq="23">
<ItemData ItemOID="IT.ADSL.STUDYID" Value="SASCSTDEMODATA"/>
<ItemData ItemOID="IT.ADSL.USUBJID" Value="S002P008"/>
<ItemData ItemOID="IT.ADSL.SUBJID" Value="P008"/>
<ItemData ItemOID="IT.ADSL.RFSTDTC" Value="2008-03-17"/>
<ItemData ItemOID="IT.ADSL.RFENDTC" Value="2008-04-28T15:10"/>
<ItemData ItemOID="IT.ADSL.SITEID" Value="S002"/>
<ItemData ItemOID="IT.ADSL.AGE" Value="54"/>
<ItemData ItemOID="IT.ADSL.AGEU" Value="YEARS"/>
<ItemData ItemOID="IT.ADSL.SEX" Value="M"/>
<ItemData ItemOID="IT.ADSL.RACE" Value="CAUCASIAN"/>
<ItemData ItemOID="IT.ADSL.ARMCD" Value="C"/>
<ItemData ItemOID="IT.ADSL.ARM" Value="TRT C"/>
<ItemData ItemOID="IT.ADSL.VISIT1DT" Value="17608"/>
<ItemData ItemOID="IT.ADSL.RANDDT" Value="17608"/>
<ItemData ItemOID="IT.ADSL.COMPLT2" Value="Y"/>
<ItemData ItemOID="IT.ADSL.COMPLT4" Value="Y"/>
<ItemData ItemOID="IT.ADSL.COMPLT6" Value="N"/>
<ItemData ItemOID="IT.ADSL.TRTEDT" Value="17637"/>
<ItemData ItemOID="IT.ADSL.TRTSDT" Value="17608"/>
<ItemData ItemOID="IT.ADSL.DSDECOD" Value="LOST TO FOLLOW UP"/>
<ItemData ItemOID="IT.ADSL.FASFL" Value="Y"/>
<ItemData ItemOID="IT.ADSL.ITTFL" Value="Y"/>
<ItemData ItemOID="IT.ADSL.SAFFL" Value="Y"/>
<ItemData ItemOID="IT.ADSL.TRT01P" Value="TRT C"/>
<ItemData ItemOID="IT.ADSL.TRT01PN" Value="3"/>
</ItemGroupData>
<ItemGroupData ItemGroupOID="IG.ADSL" data:ItemGroupDataSeq="24">
<ItemData ItemOID="IT.ADSL.STUDYID" Value="SASCSTDEMODATA"/>
<ItemData ItemOID="IT.ADSL.USUBJID" Value="S002P009"/>
<ItemData ItemOID="IT.ADSL.SUBJID" Value="P009"/>
<ItemData ItemOID="IT.ADSL.RFSTDTC" Value="2008-03-18"/>
<ItemData ItemOID="IT.ADSL.RFENDTC" Value="2008-04-30"/>
<ItemData ItemOID="IT.ADSL.SITEID" Value="S002"/>
<ItemData ItemOID="IT.ADSL.AGE" Value="21"/>
<ItemData ItemOID="IT.ADSL.AGEU" Value="YEARS"/>
<ItemData ItemOID="IT.ADSL.SEX" Value="M"/>
<ItemData ItemOID="IT.ADSL.RACE" Value="ASIAN"/>
<ItemData ItemOID="IT.ADSL.ARMCD" Value="C"/>
<ItemData ItemOID="IT.ADSL.ARM" Value="TRT C"/>
<ItemData ItemOID="IT.ADSL.VISIT1DT" Value="17609"/>
<ItemData ItemOID="IT.ADSL.RANDDT" Value="17609"/>
<ItemData ItemOID="IT.ADSL.COMPLT2" Value="Y"/>
<ItemData ItemOID="IT.ADSL.COMPLT4" Value="Y"/>
<ItemData ItemOID="IT.ADSL.COMPLT6" Value="N"/>
<ItemData ItemOID="IT.ADSL.TRTEDT" Value="17638"/>
<ItemData ItemOID="IT.ADSL.TRTSDT" Value="17609"/>
<ItemData ItemOID="IT.ADSL.DSDECOD" Value="PHYSICIAN DECISION"/>
<ItemData ItemOID="IT.ADSL.FASFL" Value="Y"/>
<ItemData ItemOID="IT.ADSL.ITTFL" Value="Y"/>
<ItemData ItemOID="IT.ADSL.SAFFL" Value="Y"/>
<ItemData ItemOID="IT.ADSL.TRT01P" Value="TRT C"/>
<ItemData ItemOID="IT.ADSL.TRT01PN" Value="3"/>
</ItemGroupData>
<ItemGroupData ItemGroupOID="IG.ADSL" data:ItemGroupDataSeq="25">
<ItemData ItemOID="IT.ADSL.STUDYID" Value="SASCSTDEMODATA"/>
<ItemData ItemOID="IT.ADSL.USUBJID" Value="S002P010"/>
<ItemData ItemOID="IT.ADSL.SUBJID" Value="P010"/>
<ItemData ItemOID="IT.ADSL.RFSTDTC" Value="2008-03-20T15:30"/>
<ItemData ItemOID="IT.ADSL.RFENDTC" Value="2008-05-01T16:55"/>
<ItemData ItemOID="IT.ADSL.SITEID" Value="S002"/>
<ItemData ItemOID="IT.ADSL.AGE" Value="38"/>
<ItemData ItemOID="IT.ADSL.AGEU" Value="YEARS"/>
<ItemData ItemOID="IT.ADSL.SEX" Value="F"/>
<ItemData ItemOID="IT.ADSL.RACE" Value="CAUCASIAN"/>
<ItemData ItemOID="IT.ADSL.ARMCD" Value="B"/>
<ItemData ItemOID="IT.ADSL.ARM" Value="TRT B"/>
<ItemData ItemOID="IT.ADSL.VISIT1DT" Value="17611"/>
<ItemData ItemOID="IT.ADSL.RANDDT" Value="17611"/>
<ItemData ItemOID="IT.ADSL.COMPLT2" Value="N"/>
<ItemData ItemOID="IT.ADSL.COMPLT4" Value="Y"/>
<ItemData ItemOID="IT.ADSL.COMPLT6" Value="Y"/>
<ItemData ItemOID="IT.ADSL.TRTEDT" Value="17653"/>
<ItemData ItemOID="IT.ADSL.TRTSDT" Value="17611"/>
<ItemData ItemOID="IT.ADSL.DSDECOD" Value="COMPLETED"/>
<ItemData ItemOID="IT.ADSL.FASFL" Value="Y"/>
<ItemData ItemOID="IT.ADSL.ITTFL" Value="Y"/>
<ItemData ItemOID="IT.ADSL.SAFFL" Value="Y"/>
<ItemData ItemOID="IT.ADSL.TRT01P" Value="TRT B"/>
<ItemData ItemOID="IT.ADSL.TRT01PN" Value="2"/>
</ItemGroupData>
<ItemGroupData ItemGroupOID="IG.ADSL" data:ItemGroupDataSeq="26">
<ItemData ItemOID="IT.ADSL.STUDYID" Value="SASCSTDEMODATA"/>
<ItemData ItemOID="IT.ADSL.USUBJID" Value="S002P011"/>
<ItemData ItemOID="IT.ADSL.SUBJID" Value="P011"/>
<ItemData ItemOID="IT.ADSL.RFSTDTC" Value="2008-03-20T15:50"/>
<ItemData ItemOID="IT.ADSL.RFENDTC" Value="2008-05-01T12:05"/>
<ItemData ItemOID="IT.ADSL.SITEID" Value="S002"/>
<ItemData ItemOID="IT.ADSL.AGE" Value="50"/>
<ItemData ItemOID="IT.ADSL.AGEU" Value="YEARS"/>
<ItemData ItemOID="IT.ADSL.SEX" Value="F"/>
<ItemData ItemOID="IT.ADSL.RACE" Value="ASIAN"/>
<ItemData ItemOID="IT.ADSL.ARMCD" Value="A"/>
<ItemData ItemOID="IT.ADSL.ARM" Value="TRT A"/>
<ItemData ItemOID="IT.ADSL.VISIT1DT" Value="17611"/>
<ItemData ItemOID="IT.ADSL.RANDDT" Value="17611"/>
<ItemData ItemOID="IT.ADSL.COMPLT2" Value="Y"/>
<ItemData ItemOID="IT.ADSL.COMPLT4" Value="Y"/>
<ItemData ItemOID="IT.ADSL.COMPLT6" Value="Y"/>
<ItemData ItemOID="IT.ADSL.TRTEDT" Value="17653"/>
<ItemData ItemOID="IT.ADSL.TRTSDT" Value="17611"/>
<ItemData ItemOID="IT.ADSL.DSDECOD" Value="COMPLETED"/>
<ItemData ItemOID="IT.ADSL.FASFL" Value="Y"/>
<ItemData ItemOID="IT.ADSL.ITTFL" Value="Y"/>
<ItemData ItemOID="IT.ADSL.SAFFL" Value="Y"/>
<ItemData ItemOID="IT.ADSL.TRT01P" Value="TRT A"/>
<ItemData ItemOID="IT.ADSL.TRT01PN" Value="1"/>
</ItemGroupData>
<ItemGroupData ItemGroupOID="IG.ADSL" data:ItemGroupDataSeq="27">
<ItemData ItemOID="IT.ADSL.STUDYID" Value="SASCSTDEMODATA"/>
<ItemData ItemOID="IT.ADSL.USUBJID" Value="S002P012"/>
<ItemData ItemOID="IT.ADSL.SUBJID" Value="P012"/>
<ItemData ItemOID="IT.ADSL.RFSTDTC" Value="2008-03-21T10:55"/>
<ItemData ItemOID="IT.ADSL.RFENDTC" Value="2008-05-02T14:25"/>
<ItemData ItemOID="IT.ADSL.SITEID" Value="S002"/>
<ItemData ItemOID="IT.ADSL.AGE" Value="27"/>
<ItemData ItemOID="IT.ADSL.AGEU" Value="YEARS"/>
<ItemData ItemOID="IT.ADSL.SEX" Value="F"/>
<ItemData ItemOID="IT.ADSL.RACE" Value="CAUCASIAN"/>
<ItemData ItemOID="IT.ADSL.ARMCD" Value="B"/>
<ItemData ItemOID="IT.ADSL.ARM" Value="TRT B"/>
<ItemData ItemOID="IT.ADSL.VISIT1DT" Value="17612"/>
<ItemData ItemOID="IT.ADSL.RANDDT" Value="17612"/>
<ItemData ItemOID="IT.ADSL.COMPLT2" Value="Y"/>
<ItemData ItemOID="IT.ADSL.COMPLT4" Value="Y"/>
<ItemData ItemOID="IT.ADSL.COMPLT6" Value="Y"/>
<ItemData ItemOID="IT.ADSL.TRTEDT" Value="17654"/>
<ItemData ItemOID="IT.ADSL.TRTSDT" Value="17612"/>
<ItemData ItemOID="IT.ADSL.DSDECOD" Value="COMPLETED"/>
<ItemData ItemOID="IT.ADSL.FASFL" Value="Y"/>
<ItemData ItemOID="IT.ADSL.ITTFL" Value="Y"/>
<ItemData ItemOID="IT.ADSL.SAFFL" Value="Y"/>
<ItemData ItemOID="IT.ADSL.TRT01P" Value="TRT B"/>
<ItemData ItemOID="IT.ADSL.TRT01PN" Value="2"/>
</ItemGroupData>
<ItemGroupData ItemGroupOID="IG.ADSL" data:ItemGroupDataSeq="28">
<ItemData ItemOID="IT.ADSL.STUDYID" Value="SASCSTDEMODATA"/>
<ItemData ItemOID="IT.ADSL.USUBJID" Value="S002P013"/>
<ItemData ItemOID="IT.ADSL.SUBJID" Value="P013"/>
<ItemData ItemOID="IT.ADSL.RFSTDTC" Value="2008-03-24"/>
<ItemData ItemOID="IT.ADSL.RFENDTC" Value="2008-05-06"/>
<ItemData ItemOID="IT.ADSL.SITEID" Value="S002"/>
<ItemData ItemOID="IT.ADSL.AGE" Value="38"/>
<ItemData ItemOID="IT.ADSL.AGEU" Value="YEARS"/>
<ItemData ItemOID="IT.ADSL.SEX" Value="F"/>
<ItemData ItemOID="IT.ADSL.RACE" Value="BLACK"/>
<ItemData ItemOID="IT.ADSL.ARMCD" Value="B"/>
<ItemData ItemOID="IT.ADSL.ARM" Value="TRT B"/>
<ItemData ItemOID="IT.ADSL.VISIT1DT" Value="17615"/>
<ItemData ItemOID="IT.ADSL.RANDDT" Value="17615"/>
<ItemData ItemOID="IT.ADSL.COMPLT2" Value="Y"/>
<ItemData ItemOID="IT.ADSL.COMPLT4" Value="Y"/>
<ItemData ItemOID="IT.ADSL.COMPLT6" Value="Y"/>
<ItemData ItemOID="IT.ADSL.TRTEDT" Value="17658"/>
<ItemData ItemOID="IT.ADSL.TRTSDT" Value="17615"/>
<ItemData ItemOID="IT.ADSL.DSDECOD" Value="COMPLETED"/>
<ItemData ItemOID="IT.ADSL.FASFL" Value="Y"/>
<ItemData ItemOID="IT.ADSL.ITTFL" Value="Y"/>
<ItemData ItemOID="IT.ADSL.SAFFL" Value="Y"/>
<ItemData ItemOID="IT.ADSL.TRT01P" Value="TRT B"/>
<ItemData ItemOID="IT.ADSL.TRT01PN" Value="2"/>
</ItemGroupData>
<ItemGroupData ItemGroupOID="IG.ADSL" data:ItemGroupDataSeq="29">
<ItemData ItemOID="IT.ADSL.STUDYID" Value="SASCSTDEMODATA"/>
<ItemData ItemOID="IT.ADSL.USUBJID" Value="S002P014"/>
<ItemData ItemOID="IT.ADSL.SUBJID" Value="P014"/>
<ItemData ItemOID="IT.ADSL.RFSTDTC" Value="2008-03-24"/>
<ItemData ItemOID="IT.ADSL.RFENDTC" Value="2008-05-05"/>
<ItemData ItemOID="IT.ADSL.SITEID" Value="S002"/>
<ItemData ItemOID="IT.ADSL.AGE" Value="18"/>
<ItemData ItemOID="IT.ADSL.AGEU" Value="YEARS"/>
<ItemData ItemOID="IT.ADSL.SEX" Value="F"/>
<ItemData ItemOID="IT.ADSL.RACE" Value="CAUCASIAN"/>
<ItemData ItemOID="IT.ADSL.ARMCD" Value="C"/>
<ItemData ItemOID="IT.ADSL.ARM" Value="TRT C"/>
<ItemData ItemOID="IT.ADSL.VISIT1DT" Value="17615"/>
<ItemData ItemOID="IT.ADSL.RANDDT" Value="17615"/>
<ItemData ItemOID="IT.ADSL.COMPLT2" Value="Y"/>
<ItemData ItemOID="IT.ADSL.COMPLT4" Value="N"/>
<ItemData ItemOID="IT.ADSL.COMPLT6" Value="N"/>
<ItemData ItemOID="IT.ADSL.TRTEDT" Value="17630"/>
<ItemData ItemOID="IT.ADSL.TRTSDT" Value="17615"/>
<ItemData ItemOID="IT.ADSL.DSDECOD" Value="LOST TO FOLLOW UP"/>
<ItemData ItemOID="IT.ADSL.FASFL" Value="Y"/>
<ItemData ItemOID="IT.ADSL.ITTFL" Value="Y"/>
<ItemData ItemOID="IT.ADSL.SAFFL" Value="Y"/>
<ItemData ItemOID="IT.ADSL.TRT01P" Value="TRT C"/>
<ItemData ItemOID="IT.ADSL.TRT01PN" Value="3"/>
</ItemGroupData>
<ItemGroupData ItemGroupOID="IG.ADSL" data:ItemGroupDataSeq="30">
<ItemData ItemOID="IT.ADSL.STUDYID" Value="SASCSTDEMODATA"/>
<ItemData ItemOID="IT.ADSL.USUBJID" Value="S002P015"/>
<ItemData ItemOID="IT.ADSL.SUBJID" Value="P015"/>
<ItemData ItemOID="IT.ADSL.RFSTDTC" Value="2008-03-25T10:40"/>
<ItemData ItemOID="IT.ADSL.RFENDTC" Value="2008-05-06T11:35"/>
<ItemData ItemOID="IT.ADSL.SITEID" Value="S002"/>
<ItemData ItemOID="IT.ADSL.AGE" Value="37"/>
<ItemData ItemOID="IT.ADSL.AGEU" Value="YEARS"/>
<ItemData ItemOID="IT.ADSL.SEX" Value="F"/>
<ItemData ItemOID="IT.ADSL.RACE" Value="CAUCASIAN"/>
<ItemData ItemOID="IT.ADSL.ARMCD" Value="C"/>
<ItemData ItemOID="IT.ADSL.ARM" Value="TRT C"/>
<ItemData ItemOID="IT.ADSL.VISIT1DT" Value="17616"/>
<ItemData ItemOID="IT.ADSL.RANDDT" Value="17616"/>
<ItemData ItemOID="IT.ADSL.COMPLT2" Value="Y"/>
<ItemData ItemOID="IT.ADSL.COMPLT4" Value="Y"/>
<ItemData ItemOID="IT.ADSL.COMPLT6" Value="N"/>
<ItemData ItemOID="IT.ADSL.TRTEDT" Value="17644"/>
<ItemData ItemOID="IT.ADSL.TRTSDT" Value="17616"/>
<ItemData ItemOID="IT.ADSL.DSDECOD" Value="LOST TO FOLLOW UP"/>
<ItemData ItemOID="IT.ADSL.FASFL" Value="Y"/>
<ItemData ItemOID="IT.ADSL.ITTFL" Value="Y"/>
<ItemData ItemOID="IT.ADSL.SAFFL" Value="Y"/>
<ItemData ItemOID="IT.ADSL.TRT01P" Value="TRT C"/>
<ItemData ItemOID="IT.ADSL.TRT01PN" Value="3"/>
</ItemGroupData>
<ItemGroupData ItemGroupOID="IG.ADSL" data:ItemGroupDataSeq="31">
<ItemData ItemOID="IT.ADSL.STUDYID" Value="SASCSTDEMODATA"/>
<ItemData ItemOID="IT.ADSL.USUBJID" Value="S002P016"/>
<ItemData ItemOID="IT.ADSL.SUBJID" Value="P016"/>
<ItemData ItemOID="IT.ADSL.RFSTDTC" Value="2008-03-27T15:00"/>
<ItemData ItemOID="IT.ADSL.RFENDTC" Value="2008-05-07T12:10"/>
<ItemData ItemOID="IT.ADSL.SITEID" Value="S002"/>
<ItemData ItemOID="IT.ADSL.AGE" Value="26"/>
<ItemData ItemOID="IT.ADSL.AGEU" Value="YEARS"/>
<ItemData ItemOID="IT.ADSL.SEX" Value="F"/>
<ItemData ItemOID="IT.ADSL.RACE" Value="CAUCASIAN"/>
<ItemData ItemOID="IT.ADSL.ARMCD" Value="B"/>
<ItemData ItemOID="IT.ADSL.ARM" Value="TRT B"/>
<ItemData ItemOID="IT.ADSL.VISIT1DT" Value="17618"/>
<ItemData ItemOID="IT.ADSL.RANDDT" Value="17618"/>
<ItemData ItemOID="IT.ADSL.COMPLT2" Value="Y"/>
<ItemData ItemOID="IT.ADSL.COMPLT4" Value="N"/>
<ItemData ItemOID="IT.ADSL.COMPLT6" Value="Y"/>
<ItemData ItemOID="IT.ADSL.TRTEDT" Value="17659"/>
<ItemData ItemOID="IT.ADSL.TRTSDT" Value="17618"/>
<ItemData ItemOID="IT.ADSL.DSDECOD" Value="COMPLETED"/>
<ItemData ItemOID="IT.ADSL.FASFL" Value="Y"/>
<ItemData ItemOID="IT.ADSL.ITTFL" Value="Y"/>
<ItemData ItemOID="IT.ADSL.SAFFL" Value="Y"/>
<ItemData ItemOID="IT.ADSL.TRT01P" Value="TRT B"/>
<ItemData ItemOID="IT.ADSL.TRT01PN" Value="2"/>
</ItemGroupData>
<ItemGroupData ItemGroupOID="IG.ADSL" data:ItemGroupDataSeq="32">
<ItemData ItemOID="IT.ADSL.STUDYID" Value="SASCSTDEMODATA"/>
<ItemData ItemOID="IT.ADSL.USUBJID" Value="S002P017"/>
<ItemData ItemOID="IT.ADSL.SUBJID" Value="P017"/>
<ItemData ItemOID="IT.ADSL.RFSTDTC" Value="2008-03-27"/>
<ItemData ItemOID="IT.ADSL.RFENDTC" Value="2008-05-08"/>
<ItemData ItemOID="IT.ADSL.SITEID" Value="S002"/>
<ItemData ItemOID="IT.ADSL.AGE" Value="41"/>
<ItemData ItemOID="IT.ADSL.AGEU" Value="YEARS"/>
<ItemData ItemOID="IT.ADSL.SEX" Value="F"/>
<ItemData ItemOID="IT.ADSL.RACE" Value="BLACK"/>
<ItemData ItemOID="IT.ADSL.ARMCD" Value="B"/>
<ItemData ItemOID="IT.ADSL.ARM" Value="TRT B"/>
<ItemData ItemOID="IT.ADSL.VISIT1DT" Value="17618"/>
<ItemData ItemOID="IT.ADSL.RANDDT" Value="17618"/>
<ItemData ItemOID="IT.ADSL.COMPLT2" Value="Y"/>
<ItemData ItemOID="IT.ADSL.COMPLT4" Value="N"/>
<ItemData ItemOID="IT.ADSL.COMPLT6" Value="N"/>
<ItemData ItemOID="IT.ADSL.TRTEDT" Value="17631"/>
<ItemData ItemOID="IT.ADSL.TRTSDT" Value="17618"/>
<ItemData ItemOID="IT.ADSL.DSDECOD" Value="LOST TO FOLLOW UP"/>
<ItemData ItemOID="IT.ADSL.FASFL" Value="Y"/>
<ItemData ItemOID="IT.ADSL.ITTFL" Value="Y"/>
<ItemData ItemOID="IT.ADSL.SAFFL" Value="Y"/>
<ItemData ItemOID="IT.ADSL.TRT01P" Value="TRT B"/>
<ItemData ItemOID="IT.ADSL.TRT01PN" Value="2"/>
</ItemGroupData>
<ItemGroupData ItemGroupOID="IG.ADSL" data:ItemGroupDataSeq="33">
<ItemData ItemOID="IT.ADSL.STUDYID" Value="SASCSTDEMODATA"/>
<ItemData ItemOID="IT.ADSL.USUBJID" Value="S002P018"/>
<ItemData ItemOID="IT.ADSL.SUBJID" Value="P018"/>
<ItemData ItemOID="IT.ADSL.RFSTDTC" Value="2008-03-27T09:55"/>
<ItemData ItemOID="IT.ADSL.RFENDTC" Value="2008-05-08"/>
<ItemData ItemOID="IT.ADSL.SITEID" Value="S002"/>
<ItemData ItemOID="IT.ADSL.AGE" Value="21"/>
<ItemData ItemOID="IT.ADSL.AGEU" Value="YEARS"/>
<ItemData ItemOID="IT.ADSL.SEX" Value="F"/>
<ItemData ItemOID="IT.ADSL.RACE" Value="OTHER"/>
<ItemData ItemOID="IT.ADSL.ARMCD" Value="A"/>
<ItemData ItemOID="IT.ADSL.ARM" Value="TRT A"/>
<ItemData ItemOID="IT.ADSL.VISIT1DT" Value="17618"/>
<ItemData ItemOID="IT.ADSL.RANDDT" Value="17618"/>
<ItemData ItemOID="IT.ADSL.COMPLT2" Value="N"/>
<ItemData ItemOID="IT.ADSL.COMPLT4" Value="Y"/>
<ItemData ItemOID="IT.ADSL.COMPLT6" Value="Y"/>
<ItemData ItemOID="IT.ADSL.TRTEDT" Value="17660"/>
<ItemData ItemOID="IT.ADSL.TRTSDT" Value="17618"/>
<ItemData ItemOID="IT.ADSL.DSDECOD" Value="COMPLETED"/>
<ItemData ItemOID="IT.ADSL.FASFL" Value="Y"/>
<ItemData ItemOID="IT.ADSL.ITTFL" Value="Y"/>
<ItemData ItemOID="IT.ADSL.SAFFL" Value="Y"/>
<ItemData ItemOID="IT.ADSL.TRT01P" Value="TRT A"/>
<ItemData ItemOID="IT.ADSL.TRT01PN" Value="1"/>
</ItemGroupData>
<ItemGroupData ItemGroupOID="IG.ADSL" data:ItemGroupDataSeq="34">
<ItemData ItemOID="IT.ADSL.STUDYID" Value="SASCSTDEMODATA"/>
<ItemData ItemOID="IT.ADSL.USUBJID" Value="S002P019"/>
<ItemData ItemOID="IT.ADSL.SUBJID" Value="P019"/>
<ItemData ItemOID="IT.ADSL.RFSTDTC" Value="2008-03-28T09:55"/>
<ItemData ItemOID="IT.ADSL.RFENDTC" Value="2008-05-09"/>
<ItemData ItemOID="IT.ADSL.SITEID" Value="S002"/>
<ItemData ItemOID="IT.ADSL.AGE" Value="27"/>
<ItemData ItemOID="IT.ADSL.AGEU" Value="YEARS"/>
<ItemData ItemOID="IT.ADSL.SEX" Value="M"/>
<ItemData ItemOID="IT.ADSL.RACE" Value="ASIAN"/>
<ItemData ItemOID="IT.ADSL.ARMCD" Value="B"/>
<ItemData ItemOID="IT.ADSL.ARM" Value="TRT B"/>
<ItemData ItemOID="IT.ADSL.VISIT1DT" Value="17619"/>
<ItemData ItemOID="IT.ADSL.RANDDT" Value="17619"/>
<ItemData ItemOID="IT.ADSL.COMPLT2" Value="Y"/>
<ItemData ItemOID="IT.ADSL.COMPLT4" Value="Y"/>
<ItemData ItemOID="IT.ADSL.COMPLT6" Value="Y"/>
<ItemData ItemOID="IT.ADSL.TRTEDT" Value="17661"/>
<ItemData ItemOID="IT.ADSL.TRTSDT" Value="17619"/>
<ItemData ItemOID="IT.ADSL.DSDECOD" Value="COMPLETED"/>
<ItemData ItemOID="IT.ADSL.FASFL" Value="Y"/>
<ItemData ItemOID="IT.ADSL.ITTFL" Value="Y"/>
<ItemData ItemOID="IT.ADSL.SAFFL" Value="Y"/>
<ItemData ItemOID="IT.ADSL.TRT01P" Value="TRT B"/>
<ItemData ItemOID="IT.ADSL.TRT01PN" Value="2"/>
</ItemGroupData>
<ItemGroupData ItemGroupOID="IG.ADSL" data:ItemGroupDataSeq="35">
<ItemData ItemOID="IT.ADSL.STUDYID" Value="SASCSTDEMODATA"/>
<ItemData ItemOID="IT.ADSL.USUBJID" Value="S002P020"/>
<ItemData ItemOID="IT.ADSL.SUBJID" Value="P020"/>
<ItemData ItemOID="IT.ADSL.RFSTDTC" Value="2008-04-02T12:35"/>
<ItemData ItemOID="IT.ADSL.RFENDTC" Value="2008-05-13T10:30"/>
<ItemData ItemOID="IT.ADSL.SITEID" Value="S002"/>
<ItemData ItemOID="IT.ADSL.AGE" Value="36"/>
<ItemData ItemOID="IT.ADSL.AGEU" Value="YEARS"/>
<ItemData ItemOID="IT.ADSL.SEX" Value="F"/>
<ItemData ItemOID="IT.ADSL.RACE" Value="BLACK"/>
<ItemData ItemOID="IT.ADSL.ARMCD" Value="C"/>
<ItemData ItemOID="IT.ADSL.ARM" Value="TRT C"/>
<ItemData ItemOID="IT.ADSL.VISIT1DT" Value="17624"/>
<ItemData ItemOID="IT.ADSL.RANDDT" Value="17624"/>
<ItemData ItemOID="IT.ADSL.COMPLT2" Value="Y"/>
<ItemData ItemOID="IT.ADSL.COMPLT4" Value="N"/>
<ItemData ItemOID="IT.ADSL.COMPLT6" Value="N"/>
<ItemData ItemOID="IT.ADSL.TRTEDT" Value="17638"/>
<ItemData ItemOID="IT.ADSL.TRTSDT" Value="17624"/>
<ItemData ItemOID="IT.ADSL.DSDECOD" Value="LOST TO FOLLOW UP"/>
<ItemData ItemOID="IT.ADSL.FASFL" Value="Y"/>
<ItemData ItemOID="IT.ADSL.ITTFL" Value="Y"/>
<ItemData ItemOID="IT.ADSL.SAFFL" Value="Y"/>
<ItemData ItemOID="IT.ADSL.TRT01P" Value="TRT C"/>
<ItemData ItemOID="IT.ADSL.TRT01PN" Value="3"/>
</ItemGroupData>
<ItemGroupData ItemGroupOID="IG.ADSL" data:ItemGroupDataSeq="36">
<ItemData ItemOID="IT.ADSL.STUDYID" Value="SASCSTDEMODATA"/>
<ItemData ItemOID="IT.ADSL.USUBJID" Value="S002P021"/>
<ItemData ItemOID="IT.ADSL.SUBJID" Value="P021"/>
<ItemData ItemOID="IT.ADSL.RFSTDTC" Value="2008-04-04T13:50"/>
<ItemData ItemOID="IT.ADSL.RFENDTC" Value="2008-05-16T16:10"/>
<ItemData ItemOID="IT.ADSL.SITEID" Value="S002"/>
<ItemData ItemOID="IT.ADSL.AGE" Value="23"/>
<ItemData ItemOID="IT.ADSL.AGEU" Value="YEARS"/>
<ItemData ItemOID="IT.ADSL.SEX" Value="F"/>
<ItemData ItemOID="IT.ADSL.RACE" Value="CAUCASIAN"/>
<ItemData ItemOID="IT.ADSL.ARMCD" Value="A"/>
<ItemData ItemOID="IT.ADSL.ARM" Value="TRT A"/>
<ItemData ItemOID="IT.ADSL.VISIT1DT" Value="17626"/>
<ItemData ItemOID="IT.ADSL.RANDDT" Value="17626"/>
<ItemData ItemOID="IT.ADSL.COMPLT2" Value="Y"/>
<ItemData ItemOID="IT.ADSL.COMPLT4" Value="N"/>
<ItemData ItemOID="IT.ADSL.COMPLT6" Value="N"/>
<ItemData ItemOID="IT.ADSL.TRTEDT" Value="17640"/>
<ItemData ItemOID="IT.ADSL.TRTSDT" Value="17626"/>
<ItemData ItemOID="IT.ADSL.DSDECOD" Value="LOST TO FOLLOW UP"/>
<ItemData ItemOID="IT.ADSL.FASFL" Value="Y"/>
<ItemData ItemOID="IT.ADSL.ITTFL" Value="Y"/>
<ItemData ItemOID="IT.ADSL.SAFFL" Value="Y"/>
<ItemData ItemOID="IT.ADSL.TRT01P" Value="TRT A"/>
<ItemData ItemOID="IT.ADSL.TRT01PN" Value="1"/>
</ItemGroupData>
<ItemGroupData ItemGroupOID="IG.ADSL" data:ItemGroupDataSeq="37">
<ItemData ItemOID="IT.ADSL.STUDYID" Value="SASCSTDEMODATA"/>
<ItemData ItemOID="IT.ADSL.USUBJID" Value="S002P022"/>
<ItemData ItemOID="IT.ADSL.SUBJID" Value="P022"/>
<ItemData ItemOID="IT.ADSL.RFSTDTC" Value="2008-04-04"/>
<ItemData ItemOID="IT.ADSL.RFENDTC" Value="2008-05-16"/>
<ItemData ItemOID="IT.ADSL.SITEID" Value="S002"/>
<ItemData ItemOID="IT.ADSL.AGE" Value="20"/>
<ItemData ItemOID="IT.ADSL.AGEU" Value="YEARS"/>
<ItemData ItemOID="IT.ADSL.SEX" Value="M"/>
<ItemData ItemOID="IT.ADSL.RACE" Value="CAUCASIAN"/>
<ItemData ItemOID="IT.ADSL.ARMCD" Value="A"/>
<ItemData ItemOID="IT.ADSL.ARM" Value="TRT A"/>
<ItemData ItemOID="IT.ADSL.VISIT1DT" Value="17626"/>
<ItemData ItemOID="IT.ADSL.RANDDT" Value="17626"/>
<ItemData ItemOID="IT.ADSL.COMPLT2" Value="Y"/>
<ItemData ItemOID="IT.ADSL.COMPLT4" Value="Y"/>
<ItemData ItemOID="IT.ADSL.COMPLT6" Value="Y"/>
<ItemData ItemOID="IT.ADSL.TRTEDT" Value="17668"/>
<ItemData ItemOID="IT.ADSL.TRTSDT" Value="17626"/>
<ItemData ItemOID="IT.ADSL.DSDECOD" Value="COMPLETED"/>
<ItemData ItemOID="IT.ADSL.FASFL" Value="Y"/>
<ItemData ItemOID="IT.ADSL.ITTFL" Value="Y"/>
<ItemData ItemOID="IT.ADSL.SAFFL" Value="Y"/>
<ItemData ItemOID="IT.ADSL.TRT01P" Value="TRT A"/>
<ItemData ItemOID="IT.ADSL.TRT01PN" Value="1"/>
</ItemGroupData>
<ItemGroupData ItemGroupOID="IG.ADSL" data:ItemGroupDataSeq="38">
<ItemData ItemOID="IT.ADSL.STUDYID" Value="SASCSTDEMODATA"/>
<ItemData ItemOID="IT.ADSL.USUBJID" Value="S002P023"/>
<ItemData ItemOID="IT.ADSL.SUBJID" Value="P023"/>
<ItemData ItemOID="IT.ADSL.RFSTDTC" Value="2008-04-07"/>
<ItemData ItemOID="IT.ADSL.RFENDTC" Value="2008-05-19T10:00"/>
<ItemData ItemOID="IT.ADSL.SITEID" Value="S002"/>
<ItemData ItemOID="IT.ADSL.AGE" Value="40"/>
<ItemData ItemOID="IT.ADSL.AGEU" Value="YEARS"/>
<ItemData ItemOID="IT.ADSL.SEX" Value="M"/>
<ItemData ItemOID="IT.ADSL.RACE" Value="HISPANIC"/>
<ItemData ItemOID="IT.ADSL.ARMCD" Value="B"/>
<ItemData ItemOID="IT.ADSL.ARM" Value="TRT B"/>
<ItemData ItemOID="IT.ADSL.VISIT1DT" Value="17629"/>
<ItemData ItemOID="IT.ADSL.RANDDT" Value="17629"/>
<ItemData ItemOID="IT.ADSL.COMPLT2" Value="Y"/>
<ItemData ItemOID="IT.ADSL.COMPLT4" Value="Y"/>
<ItemData ItemOID="IT.ADSL.COMPLT6" Value="N"/>
<ItemData ItemOID="IT.ADSL.TRTEDT" Value="17657"/>
<ItemData ItemOID="IT.ADSL.TRTSDT" Value="17629"/>
<ItemData ItemOID="IT.ADSL.DSDECOD" Value="LOST TO FOLLOW UP"/>
<ItemData ItemOID="IT.ADSL.FASFL" Value="Y"/>
<ItemData ItemOID="IT.ADSL.ITTFL" Value="Y"/>
<ItemData ItemOID="IT.ADSL.SAFFL" Value="Y"/>
<ItemData ItemOID="IT.ADSL.TRT01P" Value="TRT B"/>
<ItemData ItemOID="IT.ADSL.TRT01PN" Value="2"/>
</ItemGroupData>
<ItemGroupData ItemGroupOID="IG.ADSL" data:ItemGroupDataSeq="39">
<ItemData ItemOID="IT.ADSL.STUDYID" Value="SASCSTDEMODATA"/>
<ItemData ItemOID="IT.ADSL.USUBJID" Value="S002P024"/>
<ItemData ItemOID="IT.ADSL.SUBJID" Value="P024"/>
<ItemData ItemOID="IT.ADSL.RFSTDTC" Value="2008-04-09T15:45"/>
<ItemData ItemOID="IT.ADSL.RFENDTC" Value="2008-05-21T10:20"/>
<ItemData ItemOID="IT.ADSL.SITEID" Value="S002"/>
<ItemData ItemOID="IT.ADSL.AGE" Value="24"/>
<ItemData ItemOID="IT.ADSL.AGEU" Value="YEARS"/>
<ItemData ItemOID="IT.ADSL.SEX" Value="F"/>
<ItemData ItemOID="IT.ADSL.RACE" Value="CAUCASIAN"/>
<ItemData ItemOID="IT.ADSL.ARMCD" Value="A"/>
<ItemData ItemOID="IT.ADSL.ARM" Value="TRT A"/>
<ItemData ItemOID="IT.ADSL.VISIT1DT" Value="17631"/>
<ItemData ItemOID="IT.ADSL.RANDDT" Value="17631"/>
<ItemData ItemOID="IT.ADSL.COMPLT2" Value="Y"/>
<ItemData ItemOID="IT.ADSL.COMPLT4" Value="Y"/>
<ItemData ItemOID="IT.ADSL.COMPLT6" Value="Y"/>
<ItemData ItemOID="IT.ADSL.TRTEDT" Value="17673"/>
<ItemData ItemOID="IT.ADSL.TRTSDT" Value="17631"/>
<ItemData ItemOID="IT.ADSL.DSDECOD" Value="COMPLETED"/>
<ItemData ItemOID="IT.ADSL.FASFL" Value="Y"/>
<ItemData ItemOID="IT.ADSL.ITTFL" Value="Y"/>
<ItemData ItemOID="IT.ADSL.SAFFL" Value="Y"/>
<ItemData ItemOID="IT.ADSL.TRT01P" Value="TRT A"/>
<ItemData ItemOID="IT.ADSL.TRT01PN" Value="1"/>
</ItemGroupData>
<ItemGroupData ItemGroupOID="IG.ADSL" data:ItemGroupDataSeq="40">
<ItemData ItemOID="IT.ADSL.STUDYID" Value="SASCSTDEMODATA"/>
<ItemData ItemOID="IT.ADSL.USUBJID" Value="S002P025"/>
<ItemData ItemOID="IT.ADSL.SUBJID" Value="P025"/>
<ItemData ItemOID="IT.ADSL.RFSTDTC" Value="2008-04-15T15:40"/>
<ItemData ItemOID="IT.ADSL.RFENDTC" Value="2008-05-27T09:30"/>
<ItemData ItemOID="IT.ADSL.SITEID" Value="S002"/>
<ItemData ItemOID="IT.ADSL.AGE" Value="29"/>
<ItemData ItemOID="IT.ADSL.AGEU" Value="YEARS"/>
<ItemData ItemOID="IT.ADSL.SEX" Value="M"/>
<ItemData ItemOID="IT.ADSL.RACE" Value="CAUCASIAN"/>
<ItemData ItemOID="IT.ADSL.ARMCD" Value="C"/>
<ItemData ItemOID="IT.ADSL.ARM" Value="TRT C"/>
<ItemData ItemOID="IT.ADSL.VISIT1DT" Value="17637"/>
<ItemData ItemOID="IT.ADSL.RANDDT" Value="17637"/>
<ItemData ItemOID="IT.ADSL.COMPLT2" Value="Y"/>
<ItemData ItemOID="IT.ADSL.COMPLT4" Value="Y"/>
<ItemData ItemOID="IT.ADSL.COMPLT6" Value="Y"/>
<ItemData ItemOID="IT.ADSL.TRTEDT" Value="17679"/>
<ItemData ItemOID="IT.ADSL.TRTSDT" Value="17637"/>
<ItemData ItemOID="IT.ADSL.DSDECOD" Value="COMPLETED"/>
<ItemData ItemOID="IT.ADSL.FASFL" Value="Y"/>
<ItemData ItemOID="IT.ADSL.ITTFL" Value="Y"/>
<ItemData ItemOID="IT.ADSL.SAFFL" Value="Y"/>
<ItemData ItemOID="IT.ADSL.TRT01P" Value="TRT C"/>
<ItemData ItemOID="IT.ADSL.TRT01PN" Value="3"/>
</ItemGroupData>
<ItemGroupData ItemGroupOID="IG.ADSL" data:ItemGroupDataSeq="41">
<ItemData ItemOID="IT.ADSL.STUDYID" Value="SASCSTDEMODATA"/>
<ItemData ItemOID="IT.ADSL.USUBJID" Value="S002P026"/>
<ItemData ItemOID="IT.ADSL.SUBJID" Value="P026"/>
<ItemData ItemOID="IT.ADSL.RFSTDTC" Value="2008-04-21"/>
<ItemData ItemOID="IT.ADSL.RFENDTC" Value="2008-06-02T11:15"/>
<ItemData ItemOID="IT.ADSL.SITEID" Value="S002"/>
<ItemData ItemOID="IT.ADSL.AGE" Value="37"/>
<ItemData ItemOID="IT.ADSL.AGEU" Value="YEARS"/>
<ItemData ItemOID="IT.ADSL.SEX" Value="F"/>
<ItemData ItemOID="IT.ADSL.RACE" Value="CAUCASIAN"/>
<ItemData ItemOID="IT.ADSL.ARMCD" Value="C"/>
<ItemData ItemOID="IT.ADSL.ARM" Value="TRT C"/>
<ItemData ItemOID="IT.ADSL.VISIT1DT" Value="17643"/>
<ItemData ItemOID="IT.ADSL.RANDDT" Value="17643"/>
<ItemData ItemOID="IT.ADSL.COMPLT2" Value="Y"/>
<ItemData ItemOID="IT.ADSL.COMPLT4" Value="Y"/>
<ItemData ItemOID="IT.ADSL.COMPLT6" Value="Y"/>
<ItemData ItemOID="IT.ADSL.TRTEDT" Value="17685"/>
<ItemData ItemOID="IT.ADSL.TRTSDT" Value="17643"/>
<ItemData ItemOID="IT.ADSL.DSDECOD" Value="COMPLETED"/>
<ItemData ItemOID="IT.ADSL.FASFL" Value="Y"/>
<ItemData ItemOID="IT.ADSL.ITTFL" Value="Y"/>
<ItemData ItemOID="IT.ADSL.SAFFL" Value="Y"/>
<ItemData ItemOID="IT.ADSL.TRT01P" Value="TRT C"/>
<ItemData ItemOID="IT.ADSL.TRT01PN" Value="3"/>
</ItemGroupData>
<ItemGroupData ItemGroupOID="IG.ADSL" data:ItemGroupDataSeq="42">
<ItemData ItemOID="IT.ADSL.STUDYID" Value="SASCSTDEMODATA"/>
<ItemData ItemOID="IT.ADSL.USUBJID" Value="S002P027"/>
<ItemData ItemOID="IT.ADSL.SUBJID" Value="P027"/>
<ItemData ItemOID="IT.ADSL.RFSTDTC" Value="2008-04-23"/>
<ItemData ItemOID="IT.ADSL.RFENDTC" Value="2008-06-04"/>
<ItemData ItemOID="IT.ADSL.SITEID" Value="S002"/>
<ItemData ItemOID="IT.ADSL.AGE" Value="43"/>
<ItemData ItemOID="IT.ADSL.AGEU" Value="YEARS"/>
<ItemData ItemOID="IT.ADSL.SEX" Value="F"/>
<ItemData ItemOID="IT.ADSL.RACE" Value="HISPANIC"/>
<ItemData ItemOID="IT.ADSL.ARMCD" Value="C"/>
<ItemData ItemOID="IT.ADSL.ARM" Value="TRT C"/>
<ItemData ItemOID="IT.ADSL.VISIT1DT" Value="17645"/>
<ItemData ItemOID="IT.ADSL.RANDDT" Value="17645"/>
<ItemData ItemOID="IT.ADSL.COMPLT2" Value="Y"/>
<ItemData ItemOID="IT.ADSL.COMPLT4" Value="Y"/>
<ItemData ItemOID="IT.ADSL.COMPLT6" Value="N"/>
<ItemData ItemOID="IT.ADSL.TRTEDT" Value="17673"/>
<ItemData ItemOID="IT.ADSL.TRTSDT" Value="17645"/>
<ItemData ItemOID="IT.ADSL.DSDECOD" Value="LOST TO FOLLOW UP"/>
<ItemData ItemOID="IT.ADSL.FASFL" Value="Y"/>
<ItemData ItemOID="IT.ADSL.ITTFL" Value="Y"/>
<ItemData ItemOID="IT.ADSL.SAFFL" Value="Y"/>
<ItemData ItemOID="IT.ADSL.TRT01P" Value="TRT C"/>
<ItemData ItemOID="IT.ADSL.TRT01PN" Value="3"/>
</ItemGroupData>
<ItemGroupData ItemGroupOID="IG.ADSL" data:ItemGroupDataSeq="43">
<ItemData ItemOID="IT.ADSL.STUDYID" Value="SASCSTDEMODATA"/>
<ItemData ItemOID="IT.ADSL.USUBJID" Value="S002P028"/>
<ItemData ItemOID="IT.ADSL.SUBJID" Value="P028"/>
<ItemData ItemOID="IT.ADSL.RFSTDTC" Value="2008-04-25T09:30"/>
<ItemData ItemOID="IT.ADSL.RFENDTC" Value="2008-06-06"/>
<ItemData ItemOID="IT.ADSL.SITEID" Value="S002"/>
<ItemData ItemOID="IT.ADSL.AGE" Value="46"/>
<ItemData ItemOID="IT.ADSL.AGEU" Value="YEARS"/>
<ItemData ItemOID="IT.ADSL.SEX" Value="M"/>
<ItemData ItemOID="IT.ADSL.RACE" Value="CAUCASIAN"/>
<ItemData ItemOID="IT.ADSL.ARMCD" Value="C"/>
<ItemData ItemOID="IT.ADSL.ARM" Value="TRT C"/>
<ItemData ItemOID="IT.ADSL.VISIT1DT" Value="17647"/>
<ItemData ItemOID="IT.ADSL.RANDDT" Value="17647"/>
<ItemData ItemOID="IT.ADSL.COMPLT2" Value="Y"/>
<ItemData ItemOID="IT.ADSL.COMPLT4" Value="Y"/>
<ItemData ItemOID="IT.ADSL.COMPLT6" Value="N"/>
<ItemData ItemOID="IT.ADSL.TRTEDT" Value="17675"/>
<ItemData ItemOID="IT.ADSL.TRTSDT" Value="17647"/>
<ItemData ItemOID="IT.ADSL.DSDECOD" Value="LOST TO FOLLOW UP"/>
<ItemData ItemOID="IT.ADSL.FASFL" Value="Y"/>
<ItemData ItemOID="IT.ADSL.ITTFL" Value="Y"/>
<ItemData ItemOID="IT.ADSL.SAFFL" Value="Y"/>
<ItemData ItemOID="IT.ADSL.TRT01P" Value="TRT C"/>
<ItemData ItemOID="IT.ADSL.TRT01PN" Value="3"/>
</ItemGroupData>
<ItemGroupData ItemGroupOID="IG.ADSL" data:ItemGroupDataSeq="44">
<ItemData ItemOID="IT.ADSL.STUDYID" Value="SASCSTDEMODATA"/>
<ItemData ItemOID="IT.ADSL.USUBJID" Value="S002P029"/>
<ItemData ItemOID="IT.ADSL.SUBJID" Value="P029"/>
<ItemData ItemOID="IT.ADSL.RFSTDTC" Value="2008-04-25T10:30"/>
<ItemData ItemOID="IT.ADSL.RFENDTC" Value="2008-06-06"/>
<ItemData ItemOID="IT.ADSL.SITEID" Value="S002"/>
<ItemData ItemOID="IT.ADSL.AGE" Value="50"/>
<ItemData ItemOID="IT.ADSL.AGEU" Value="YEARS"/>
<ItemData ItemOID="IT.ADSL.SEX" Value="M"/>
<ItemData ItemOID="IT.ADSL.RACE" Value="CAUCASIAN"/>
<ItemData ItemOID="IT.ADSL.ARMCD" Value="SCRNFAIL"/>
<ItemData ItemOID="IT.ADSL.ARM" Value="SCREEN FAILURE"/>
<ItemData ItemOID="IT.ADSL.VISIT1DT" Value="17647"/>
<ItemData ItemOID="IT.ADSL.RANDDT" Value="17647"/>
<ItemData ItemOID="IT.ADSL.COMPLT2" Value="N"/>
<ItemData ItemOID="IT.ADSL.COMPLT4" Value="N"/>
<ItemData ItemOID="IT.ADSL.COMPLT6" Value="N"/>
<ItemData ItemOID="IT.ADSL.DSDECOD" Value="SCREEN FAILURE"/>
<ItemData ItemOID="IT.ADSL.FASFL" Value="N"/>
<ItemData ItemOID="IT.ADSL.ITTFL" Value="Y"/>
<ItemData ItemOID="IT.ADSL.SAFFL" Value="N"/>
<ItemData ItemOID="IT.ADSL.TRT01P" Value="SCREEN FAILURE"/>
<ItemData ItemOID="IT.ADSL.TRT01PN" Value="0"/>
</ItemGroupData>
<ItemGroupData ItemGroupOID="IG.ADSL" data:ItemGroupDataSeq="45">
<ItemData ItemOID="IT.ADSL.STUDYID" Value="SASCSTDEMODATA"/>
<ItemData ItemOID="IT.ADSL.USUBJID" Value="S002P030"/>
<ItemData ItemOID="IT.ADSL.SUBJID" Value="P030"/>
<ItemData ItemOID="IT.ADSL.RFSTDTC" Value="2008-04-25T12:35"/>
<ItemData ItemOID="IT.ADSL.RFENDTC" Value="2008-06-05T15:55"/>
<ItemData ItemOID="IT.ADSL.SITEID" Value="S002"/>
<ItemData ItemOID="IT.ADSL.AGE" Value="50"/>
<ItemData ItemOID="IT.ADSL.AGEU" Value="YEARS"/>
<ItemData ItemOID="IT.ADSL.SEX" Value="F"/>
<ItemData ItemOID="IT.ADSL.RACE" Value="HISPANIC"/>
<ItemData ItemOID="IT.ADSL.ARMCD" Value="A"/>
<ItemData ItemOID="IT.ADSL.ARM" Value="TRT A"/>
<ItemData ItemOID="IT.ADSL.VISIT1DT" Value="17647"/>
<ItemData ItemOID="IT.ADSL.RANDDT" Value="17647"/>
<ItemData ItemOID="IT.ADSL.COMPLT2" Value="Y"/>
<ItemData ItemOID="IT.ADSL.COMPLT4" Value="Y"/>
<ItemData ItemOID="IT.ADSL.COMPLT6" Value="N"/>
<ItemData ItemOID="IT.ADSL.TRTEDT" Value="17675"/>
<ItemData ItemOID="IT.ADSL.TRTSDT" Value="17647"/>
<ItemData ItemOID="IT.ADSL.DSDECOD" Value="PHYSICIAN DECISION"/>
<ItemData ItemOID="IT.ADSL.FASFL" Value="Y"/>
<ItemData ItemOID="IT.ADSL.ITTFL" Value="Y"/>
<ItemData ItemOID="IT.ADSL.SAFFL" Value="Y"/>
<ItemData ItemOID="IT.ADSL.TRT01P" Value="TRT A"/>
<ItemData ItemOID="IT.ADSL.TRT01PN" Value="1"/>
</ItemGroupData>
<ItemGroupData ItemGroupOID="IG.ADSL" data:ItemGroupDataSeq="46">
<ItemData ItemOID="IT.ADSL.STUDYID" Value="SASCSTDEMODATA"/>
<ItemData ItemOID="IT.ADSL.USUBJID" Value="S002P031"/>
<ItemData ItemOID="IT.ADSL.SUBJID" Value="P031"/>
<ItemData ItemOID="IT.ADSL.RFSTDTC" Value="2008-04-29T10:05"/>
<ItemData ItemOID="IT.ADSL.RFENDTC" Value="2008-06-11T13:50"/>
<ItemData ItemOID="IT.ADSL.SITEID" Value="S002"/>
<ItemData ItemOID="IT.ADSL.AGE" Value="32"/>
<ItemData ItemOID="IT.ADSL.AGEU" Value="YEARS"/>
<ItemData ItemOID="IT.ADSL.SEX" Value="F"/>
<ItemData ItemOID="IT.ADSL.RACE" Value="CAUCASIAN"/>
<ItemData ItemOID="IT.ADSL.ARMCD" Value="A"/>
<ItemData ItemOID="IT.ADSL.ARM" Value="TRT A"/>
<ItemData ItemOID="IT.ADSL.VISIT1DT" Value="17651"/>
<ItemData ItemOID="IT.ADSL.RANDDT" Value="17651"/>
<ItemData ItemOID="IT.ADSL.COMPLT2" Value="Y"/>
<ItemData ItemOID="IT.ADSL.COMPLT4" Value="Y"/>
<ItemData ItemOID="IT.ADSL.COMPLT6" Value="Y"/>
<ItemData ItemOID="IT.ADSL.TRTEDT" Value="17694"/>
<ItemData ItemOID="IT.ADSL.TRTSDT" Value="17651"/>
<ItemData ItemOID="IT.ADSL.DSDECOD" Value="COMPLETED"/>
<ItemData ItemOID="IT.ADSL.FASFL" Value="Y"/>
<ItemData ItemOID="IT.ADSL.ITTFL" Value="Y"/>
<ItemData ItemOID="IT.ADSL.SAFFL" Value="Y"/>
<ItemData ItemOID="IT.ADSL.TRT01P" Value="TRT A"/>
<ItemData ItemOID="IT.ADSL.TRT01PN" Value="1"/>
</ItemGroupData>
<ItemGroupData ItemGroupOID="IG.ADSL" data:ItemGroupDataSeq="47">
<ItemData ItemOID="IT.ADSL.STUDYID" Value="SASCSTDEMODATA"/>
<ItemData ItemOID="IT.ADSL.USUBJID" Value="S002P032"/>
<ItemData ItemOID="IT.ADSL.SUBJID" Value="P032"/>
<ItemData ItemOID="IT.ADSL.RFSTDTC" Value="2008-04-30T17:00"/>
<ItemData ItemOID="IT.ADSL.RFENDTC" Value="2008-06-11T10:35"/>
<ItemData ItemOID="IT.ADSL.SITEID" Value="S002"/>
<ItemData ItemOID="IT.ADSL.AGE" Value="28"/>
<ItemData ItemOID="IT.ADSL.AGEU" Value="YEARS"/>
<ItemData ItemOID="IT.ADSL.SEX" Value="M"/>
<ItemData ItemOID="IT.ADSL.RACE" Value="CAUCASIAN"/>
<ItemData ItemOID="IT.ADSL.ARMCD" Value="A"/>
<ItemData ItemOID="IT.ADSL.ARM" Value="TRT A"/>
<ItemData ItemOID="IT.ADSL.VISIT1DT" Value="17652"/>
<ItemData ItemOID="IT.ADSL.RANDDT" Value="17652"/>
<ItemData ItemOID="IT.ADSL.COMPLT2" Value="Y"/>
<ItemData ItemOID="IT.ADSL.COMPLT4" Value="Y"/>
<ItemData ItemOID="IT.ADSL.COMPLT6" Value="Y"/>
<ItemData ItemOID="IT.ADSL.TRTEDT" Value="17694"/>
<ItemData ItemOID="IT.ADSL.TRTSDT" Value="17652"/>
<ItemData ItemOID="IT.ADSL.DSDECOD" Value="COMPLETED"/>
<ItemData ItemOID="IT.ADSL.FASFL" Value="Y"/>
<ItemData ItemOID="IT.ADSL.ITTFL" Value="Y"/>
<ItemData ItemOID="IT.ADSL.SAFFL" Value="Y"/>
<ItemData ItemOID="IT.ADSL.TRT01P" Value="TRT A"/>
<ItemData ItemOID="IT.ADSL.TRT01PN" Value="1"/>
</ItemGroupData>
<ItemGroupData ItemGroupOID="IG.ADSL" data:ItemGroupDataSeq="48">
<ItemData ItemOID="IT.ADSL.STUDYID" Value="SASCSTDEMODATA"/>
<ItemData ItemOID="IT.ADSL.USUBJID" Value="S002P033"/>
<ItemData ItemOID="IT.ADSL.SUBJID" Value="P033"/>
<ItemData ItemOID="IT.ADSL.RFSTDTC" Value="2008-05-02T10:20"/>
<ItemData ItemOID="IT.ADSL.RFENDTC" Value="2008-06-13T13:40"/>
<ItemData ItemOID="IT.ADSL.SITEID" Value="S002"/>
<ItemData ItemOID="IT.ADSL.AGE" Value="41"/>
<ItemData ItemOID="IT.ADSL.AGEU" Value="YEARS"/>
<ItemData ItemOID="IT.ADSL.SEX" Value="M"/>
<ItemData ItemOID="IT.ADSL.RACE" Value="CAUCASIAN"/>
<ItemData ItemOID="IT.ADSL.ARMCD" Value="B"/>
<ItemData ItemOID="IT.ADSL.ARM" Value="TRT B"/>
<ItemData ItemOID="IT.ADSL.VISIT1DT" Value="17654"/>
<ItemData ItemOID="IT.ADSL.RANDDT" Value="17654"/>
<ItemData ItemOID="IT.ADSL.COMPLT2" Value="Y"/>
<ItemData ItemOID="IT.ADSL.COMPLT4" Value="Y"/>
<ItemData ItemOID="IT.ADSL.COMPLT6" Value="Y"/>
<ItemData ItemOID="IT.ADSL.TRTEDT" Value="17696"/>
<ItemData ItemOID="IT.ADSL.TRTSDT" Value="17654"/>
<ItemData ItemOID="IT.ADSL.DSDECOD" Value="COMPLETED"/>
<ItemData ItemOID="IT.ADSL.FASFL" Value="Y"/>
<ItemData ItemOID="IT.ADSL.ITTFL" Value="Y"/>
<ItemData ItemOID="IT.ADSL.SAFFL" Value="Y"/>
<ItemData ItemOID="IT.ADSL.TRT01P" Value="TRT B"/>
<ItemData ItemOID="IT.ADSL.TRT01PN" Value="2"/>
</ItemGroupData>
<ItemGroupData ItemGroupOID="IG.ADSL" data:ItemGroupDataSeq="49">
<ItemData ItemOID="IT.ADSL.STUDYID" Value="SASCSTDEMODATA"/>
<ItemData ItemOID="IT.ADSL.USUBJID" Value="S002P034"/>
<ItemData ItemOID="IT.ADSL.SUBJID" Value="P034"/>
<ItemData ItemOID="IT.ADSL.RFSTDTC" Value="2008-05-07T09:25"/>
<ItemData ItemOID="IT.ADSL.RFENDTC" Value="2008-06-18T09:20"/>
<ItemData ItemOID="IT.ADSL.SITEID" Value="S002"/>
<ItemData ItemOID="IT.ADSL.AGE" Value="40"/>
<ItemData ItemOID="IT.ADSL.AGEU" Value="YEARS"/>
<ItemData ItemOID="IT.ADSL.SEX" Value="F"/>
<ItemData ItemOID="IT.ADSL.RACE" Value="OTHER"/>
<ItemData ItemOID="IT.ADSL.ARMCD" Value="SCRNFAIL"/>
<ItemData ItemOID="IT.ADSL.ARM" Value="SCREEN FAILURE"/>
<ItemData ItemOID="IT.ADSL.VISIT1DT" Value="17659"/>
<ItemData ItemOID="IT.ADSL.RANDDT" Value="17659"/>
<ItemData ItemOID="IT.ADSL.COMPLT2" Value="N"/>
<ItemData ItemOID="IT.ADSL.COMPLT4" Value="N"/>
<ItemData ItemOID="IT.ADSL.COMPLT6" Value="N"/>
<ItemData ItemOID="IT.ADSL.DSDECOD" Value="SCREEN FAILURE"/>
<ItemData ItemOID="IT.ADSL.FASFL" Value="N"/>
<ItemData ItemOID="IT.ADSL.ITTFL" Value="Y"/>
<ItemData ItemOID="IT.ADSL.SAFFL" Value="N"/>
<ItemData ItemOID="IT.ADSL.TRT01P" Value="SCREEN FAILURE"/>
<ItemData ItemOID="IT.ADSL.TRT01PN" Value="0"/>
</ItemGroupData>
<ItemGroupData ItemGroupOID="IG.ADSL" data:ItemGroupDataSeq="50">
<ItemData ItemOID="IT.ADSL.STUDYID" Value="SASCSTDEMODATA"/>
<ItemData ItemOID="IT.ADSL.USUBJID" Value="S002P035"/>
<ItemData ItemOID="IT.ADSL.SUBJID" Value="P035"/>
<ItemData ItemOID="IT.ADSL.RFSTDTC" Value="2008-05-07"/>
<ItemData ItemOID="IT.ADSL.RFENDTC" Value="2008-06-18"/>
<ItemData ItemOID="IT.ADSL.SITEID" Value="S002"/>
<ItemData ItemOID="IT.ADSL.AGE" Value="48"/>
<ItemData ItemOID="IT.ADSL.AGEU" Value="YEARS"/>
<ItemData ItemOID="IT.ADSL.SEX" Value="F"/>
<ItemData ItemOID="IT.ADSL.RACE" Value="HISPANIC"/>
<ItemData ItemOID="IT.ADSL.ARMCD" Value="B"/>
<ItemData ItemOID="IT.ADSL.ARM" Value="TRT B"/>
<ItemData ItemOID="IT.ADSL.VISIT1DT" Value="17659"/>
<ItemData ItemOID="IT.ADSL.RANDDT" Value="17659"/>
<ItemData ItemOID="IT.ADSL.COMPLT2" Value="Y"/>
<ItemData ItemOID="IT.ADSL.COMPLT4" Value="Y"/>
<ItemData ItemOID="IT.ADSL.COMPLT6" Value="Y"/>
<ItemData ItemOID="IT.ADSL.TRTEDT" Value="17701"/>
<ItemData ItemOID="IT.ADSL.TRTSDT" Value="17659"/>
<ItemData ItemOID="IT.ADSL.DSDECOD" Value="COMPLETED"/>
<ItemData ItemOID="IT.ADSL.FASFL" Value="Y"/>
<ItemData ItemOID="IT.ADSL.ITTFL" Value="Y"/>
<ItemData ItemOID="IT.ADSL.SAFFL" Value="Y"/>
<ItemData ItemOID="IT.ADSL.TRT01P" Value="TRT B"/>
<ItemData ItemOID="IT.ADSL.TRT01PN" Value="2"/>
</ItemGroupData>
<ItemGroupData ItemGroupOID="IG.ADSL" data:ItemGroupDataSeq="51">
<ItemData ItemOID="IT.ADSL.STUDYID" Value="SASCSTDEMODATA"/>
<ItemData ItemOID="IT.ADSL.USUBJID" Value="S003P001"/>
<ItemData ItemOID="IT.ADSL.SUBJID" Value="P001"/>
<ItemData ItemOID="IT.ADSL.RFSTDTC" Value="2008-04-09T14:20"/>
<ItemData ItemOID="IT.ADSL.RFENDTC" Value="2008-05-21"/>
<ItemData ItemOID="IT.ADSL.SITEID" Value="S003"/>
<ItemData ItemOID="IT.ADSL.AGE" Value="48"/>
<ItemData ItemOID="IT.ADSL.AGEU" Value="YEARS"/>
<ItemData ItemOID="IT.ADSL.SEX" Value="F"/>
<ItemData ItemOID="IT.ADSL.RACE" Value="ASIAN"/>
<ItemData ItemOID="IT.ADSL.ARMCD" Value="B"/>
<ItemData ItemOID="IT.ADSL.ARM" Value="TRT B"/>
<ItemData ItemOID="IT.ADSL.VISIT1DT" Value="17631"/>
<ItemData ItemOID="IT.ADSL.RANDDT" Value="17631"/>
<ItemData ItemOID="IT.ADSL.COMPLT2" Value="Y"/>
<ItemData ItemOID="IT.ADSL.COMPLT4" Value="Y"/>
<ItemData ItemOID="IT.ADSL.COMPLT6" Value="Y"/>
<ItemData ItemOID="IT.ADSL.TRTEDT" Value="17673"/>
<ItemData ItemOID="IT.ADSL.TRTSDT" Value="17631"/>
<ItemData ItemOID="IT.ADSL.DSDECOD" Value="COMPLETED"/>
<ItemData ItemOID="IT.ADSL.FASFL" Value="Y"/>
<ItemData ItemOID="IT.ADSL.ITTFL" Value="Y"/>
<ItemData ItemOID="IT.ADSL.SAFFL" Value="Y"/>
<ItemData ItemOID="IT.ADSL.TRT01P" Value="TRT B"/>
<ItemData ItemOID="IT.ADSL.TRT01PN" Value="2"/>
</ItemGroupData>
<ItemGroupData ItemGroupOID="IG.ADSL" data:ItemGroupDataSeq="52">
<ItemData ItemOID="IT.ADSL.STUDYID" Value="SASCSTDEMODATA"/>
<ItemData ItemOID="IT.ADSL.USUBJID" Value="S003P002"/>
<ItemData ItemOID="IT.ADSL.SUBJID" Value="P002"/>
<ItemData ItemOID="IT.ADSL.RFSTDTC" Value="2008-04-10T11:10"/>
<ItemData ItemOID="IT.ADSL.RFENDTC" Value="2008-05-23T14:50"/>
<ItemData ItemOID="IT.ADSL.SITEID" Value="S003"/>
<ItemData ItemOID="IT.ADSL.AGE" Value="21"/>
<ItemData ItemOID="IT.ADSL.AGEU" Value="YEARS"/>
<ItemData ItemOID="IT.ADSL.SEX" Value="M"/>
<ItemData ItemOID="IT.ADSL.RACE" Value="CAUCASIAN"/>
<ItemData ItemOID="IT.ADSL.ARMCD" Value="B"/>
<ItemData ItemOID="IT.ADSL.ARM" Value="TRT B"/>
<ItemData ItemOID="IT.ADSL.VISIT1DT" Value="17632"/>
<ItemData ItemOID="IT.ADSL.RANDDT" Value="17632"/>
<ItemData ItemOID="IT.ADSL.COMPLT2" Value="Y"/>
<ItemData ItemOID="IT.ADSL.COMPLT4" Value="Y"/>
<ItemData ItemOID="IT.ADSL.COMPLT6" Value="N"/>
<ItemData ItemOID="IT.ADSL.TRTEDT" Value="17660"/>
<ItemData ItemOID="IT.ADSL.TRTSDT" Value="17632"/>
<ItemData ItemOID="IT.ADSL.DSDECOD" Value="LOST TO FOLLOW UP"/>
<ItemData ItemOID="IT.ADSL.FASFL" Value="Y"/>
<ItemData ItemOID="IT.ADSL.ITTFL" Value="Y"/>
<ItemData ItemOID="IT.ADSL.SAFFL" Value="Y"/>
<ItemData ItemOID="IT.ADSL.TRT01P" Value="TRT B"/>
<ItemData ItemOID="IT.ADSL.TRT01PN" Value="2"/>
</ItemGroupData>
<ItemGroupData ItemGroupOID="IG.ADSL" data:ItemGroupDataSeq="53">
<ItemData ItemOID="IT.ADSL.STUDYID" Value="SASCSTDEMODATA"/>
<ItemData ItemOID="IT.ADSL.USUBJID" Value="S003P003"/>
<ItemData ItemOID="IT.ADSL.SUBJID" Value="P003"/>
<ItemData ItemOID="IT.ADSL.RFSTDTC" Value="2008-04-15T10:55"/>
<ItemData ItemOID="IT.ADSL.RFENDTC" Value="2008-05-27"/>
<ItemData ItemOID="IT.ADSL.SITEID" Value="S003"/>
<ItemData ItemOID="IT.ADSL.AGE" Value="42"/>
<ItemData ItemOID="IT.ADSL.AGEU" Value="YEARS"/>
<ItemData ItemOID="IT.ADSL.SEX" Value="F"/>
<ItemData ItemOID="IT.ADSL.RACE" Value="HISPANIC"/>
<ItemData ItemOID="IT.ADSL.ARMCD" Value="C"/>
<ItemData ItemOID="IT.ADSL.ARM" Value="TRT C"/>
<ItemData ItemOID="IT.ADSL.VISIT1DT" Value="17637"/>
<ItemData ItemOID="IT.ADSL.RANDDT" Value="17637"/>
<ItemData ItemOID="IT.ADSL.COMPLT2" Value="N"/>
<ItemData ItemOID="IT.ADSL.COMPLT4" Value="Y"/>
<ItemData ItemOID="IT.ADSL.COMPLT6" Value="Y"/>
<ItemData ItemOID="IT.ADSL.TRTEDT" Value="17679"/>
<ItemData ItemOID="IT.ADSL.TRTSDT" Value="17637"/>
<ItemData ItemOID="IT.ADSL.DSDECOD" Value="COMPLETED"/>
<ItemData ItemOID="IT.ADSL.FASFL" Value="Y"/>
<ItemData ItemOID="IT.ADSL.ITTFL" Value="Y"/>
<ItemData ItemOID="IT.ADSL.SAFFL" Value="Y"/>
<ItemData ItemOID="IT.ADSL.TRT01P" Value="TRT C"/>
<ItemData ItemOID="IT.ADSL.TRT01PN" Value="3"/>
</ItemGroupData>
<ItemGroupData ItemGroupOID="IG.ADSL" data:ItemGroupDataSeq="54">
<ItemData ItemOID="IT.ADSL.STUDYID" Value="SASCSTDEMODATA"/>
<ItemData ItemOID="IT.ADSL.USUBJID" Value="S003P004"/>
<ItemData ItemOID="IT.ADSL.SUBJID" Value="P004"/>
<ItemData ItemOID="IT.ADSL.RFSTDTC" Value="2008-04-17T10:00"/>
<ItemData ItemOID="IT.ADSL.RFENDTC" Value="2008-05-29"/>
<ItemData ItemOID="IT.ADSL.SITEID" Value="S003"/>
<ItemData ItemOID="IT.ADSL.AGE" Value="35"/>
<ItemData ItemOID="IT.ADSL.AGEU" Value="YEARS"/>
<ItemData ItemOID="IT.ADSL.SEX" Value="M"/>
<ItemData ItemOID="IT.ADSL.RACE" Value="CAUCASIAN"/>
<ItemData ItemOID="IT.ADSL.ARMCD" Value="A"/>
<ItemData ItemOID="IT.ADSL.ARM" Value="TRT A"/>
<ItemData ItemOID="IT.ADSL.VISIT1DT" Value="17639"/>
<ItemData ItemOID="IT.ADSL.RANDDT" Value="17639"/>
<ItemData ItemOID="IT.ADSL.COMPLT2" Value="Y"/>
<ItemData ItemOID="IT.ADSL.COMPLT4" Value="N"/>
<ItemData ItemOID="IT.ADSL.COMPLT6" Value="N"/>
<ItemData ItemOID="IT.ADSL.TRTEDT" Value="17654"/>
<ItemData ItemOID="IT.ADSL.TRTSDT" Value="17639"/>
<ItemData ItemOID="IT.ADSL.DSDECOD" Value="LOST TO FOLLOW UP"/>
<ItemData ItemOID="IT.ADSL.FASFL" Value="Y"/>
<ItemData ItemOID="IT.ADSL.ITTFL" Value="Y"/>
<ItemData ItemOID="IT.ADSL.SAFFL" Value="Y"/>
<ItemData ItemOID="IT.ADSL.TRT01P" Value="TRT A"/>
<ItemData ItemOID="IT.ADSL.TRT01PN" Value="1"/>
</ItemGroupData>
<ItemGroupData ItemGroupOID="IG.ADSL" data:ItemGroupDataSeq="55">
<ItemData ItemOID="IT.ADSL.STUDYID" Value="SASCSTDEMODATA"/>
<ItemData ItemOID="IT.ADSL.USUBJID" Value="S003P005"/>
<ItemData ItemOID="IT.ADSL.SUBJID" Value="P005"/>
<ItemData ItemOID="IT.ADSL.RFSTDTC" Value="2008-04-25T09:35"/>
<ItemData ItemOID="IT.ADSL.RFENDTC" Value="2008-06-06"/>
<ItemData ItemOID="IT.ADSL.SITEID" Value="S003"/>
<ItemData ItemOID="IT.ADSL.AGE" Value="38"/>
<ItemData ItemOID="IT.ADSL.AGEU" Value="YEARS"/>
<ItemData ItemOID="IT.ADSL.SEX" Value="F"/>
<ItemData ItemOID="IT.ADSL.RACE" Value="ASIAN"/>
<ItemData ItemOID="IT.ADSL.ARMCD" Value="B"/>
<ItemData ItemOID="IT.ADSL.ARM" Value="TRT B"/>
<ItemData ItemOID="IT.ADSL.VISIT1DT" Value="17647"/>
<ItemData ItemOID="IT.ADSL.RANDDT" Value="17647"/>
<ItemData ItemOID="IT.ADSL.COMPLT2" Value="Y"/>
<ItemData ItemOID="IT.ADSL.COMPLT4" Value="Y"/>
<ItemData ItemOID="IT.ADSL.COMPLT6" Value="Y"/>
<ItemData ItemOID="IT.ADSL.TRTEDT" Value="17689"/>
<ItemData ItemOID="IT.ADSL.TRTSDT" Value="17647"/>
<ItemData ItemOID="IT.ADSL.DSDECOD" Value="COMPLETED"/>
<ItemData ItemOID="IT.ADSL.FASFL" Value="Y"/>
<ItemData ItemOID="IT.ADSL.ITTFL" Value="Y"/>
<ItemData ItemOID="IT.ADSL.SAFFL" Value="Y"/>
<ItemData ItemOID="IT.ADSL.TRT01P" Value="TRT B"/>
<ItemData ItemOID="IT.ADSL.TRT01PN" Value="2"/>
</ItemGroupData>
<ItemGroupData ItemGroupOID="IG.ADSL" data:ItemGroupDataSeq="56">
<ItemData ItemOID="IT.ADSL.STUDYID" Value="SASCSTDEMODATA"/>
<ItemData ItemOID="IT.ADSL.USUBJID" Value="S003P006"/>
<ItemData ItemOID="IT.ADSL.SUBJID" Value="P006"/>
<ItemData ItemOID="IT.ADSL.RFSTDTC" Value="2008-05-01T11:15"/>
<ItemData ItemOID="IT.ADSL.RFENDTC" Value="2008-06-11"/>
<ItemData ItemOID="IT.ADSL.SITEID" Value="S003"/>
<ItemData ItemOID="IT.ADSL.AGE" Value="24"/>
<ItemData ItemOID="IT.ADSL.AGEU" Value="YEARS"/>
<ItemData ItemOID="IT.ADSL.SEX" Value="F"/>
<ItemData ItemOID="IT.ADSL.RACE" Value="OTHER"/>
<ItemData ItemOID="IT.ADSL.ARMCD" Value="A"/>
<ItemData ItemOID="IT.ADSL.ARM" Value="TRT A"/>
<ItemData ItemOID="IT.ADSL.VISIT1DT" Value="17653"/>
<ItemData ItemOID="IT.ADSL.RANDDT" Value="17653"/>
<ItemData ItemOID="IT.ADSL.COMPLT2" Value="Y"/>
<ItemData ItemOID="IT.ADSL.COMPLT4" Value="Y"/>
<ItemData ItemOID="IT.ADSL.COMPLT6" Value="Y"/>
<ItemData ItemOID="IT.ADSL.TRTEDT" Value="17694"/>
<ItemData ItemOID="IT.ADSL.TRTSDT" Value="17653"/>
<ItemData ItemOID="IT.ADSL.DSDECOD" Value="COMPLETED"/>
<ItemData ItemOID="IT.ADSL.FASFL" Value="Y"/>
<ItemData ItemOID="IT.ADSL.ITTFL" Value="Y"/>
<ItemData ItemOID="IT.ADSL.SAFFL" Value="Y"/>
<ItemData ItemOID="IT.ADSL.TRT01P" Value="TRT A"/>
<ItemData ItemOID="IT.ADSL.TRT01PN" Value="1"/>
</ItemGroupData>
<ItemGroupData ItemGroupOID="IG.ADSL" data:ItemGroupDataSeq="57">
<ItemData ItemOID="IT.ADSL.STUDYID" Value="SASCSTDEMODATA"/>
<ItemData ItemOID="IT.ADSL.USUBJID" Value="S003P007"/>
<ItemData ItemOID="IT.ADSL.SUBJID" Value="P007"/>
<ItemData ItemOID="IT.ADSL.RFSTDTC" Value="2008-05-06"/>
<ItemData ItemOID="IT.ADSL.RFENDTC" Value="2008-06-17T10:35"/>
<ItemData ItemOID="IT.ADSL.SITEID" Value="S003"/>
<ItemData ItemOID="IT.ADSL.AGE" Value="39"/>
<ItemData ItemOID="IT.ADSL.AGEU" Value="YEARS"/>
<ItemData ItemOID="IT.ADSL.SEX" Value="F"/>
<ItemData ItemOID="IT.ADSL.RACE" Value="BLACK"/>
<ItemData ItemOID="IT.ADSL.ARMCD" Value="B"/>
<ItemData ItemOID="IT.ADSL.ARM" Value="TRT B"/>
<ItemData ItemOID="IT.ADSL.VISIT1DT" Value="17658"/>
<ItemData ItemOID="IT.ADSL.RANDDT" Value="17658"/>
<ItemData ItemOID="IT.ADSL.COMPLT2" Value="N"/>
<ItemData ItemOID="IT.ADSL.COMPLT4" Value="N"/>
<ItemData ItemOID="IT.ADSL.COMPLT6" Value="N"/>
<ItemData ItemOID="IT.ADSL.TRTEDT" Value="17658"/>
<ItemData ItemOID="IT.ADSL.TRTSDT" Value="17658"/>
<ItemData ItemOID="IT.ADSL.DSDECOD" Value="RANDOMIZED"/>
<ItemData ItemOID="IT.ADSL.FASFL" Value="Y"/>
<ItemData ItemOID="IT.ADSL.ITTFL" Value="Y"/>
<ItemData ItemOID="IT.ADSL.SAFFL" Value="Y"/>
<ItemData ItemOID="IT.ADSL.TRT01P" Value="TRT B"/>
<ItemData ItemOID="IT.ADSL.TRT01PN" Value="2"/>
</ItemGroupData>
<ItemGroupData ItemGroupOID="IG.ADSL" data:ItemGroupDataSeq="58">
<ItemData ItemOID="IT.ADSL.STUDYID" Value="SASCSTDEMODATA"/>
<ItemData ItemOID="IT.ADSL.USUBJID" Value="S003P008"/>
<ItemData ItemOID="IT.ADSL.SUBJID" Value="P008"/>
<ItemData ItemOID="IT.ADSL.RFSTDTC" Value="2008-05-13"/>
<ItemData ItemOID="IT.ADSL.RFENDTC" Value="2008-06-24"/>
<ItemData ItemOID="IT.ADSL.SITEID" Value="S003"/>
<ItemData ItemOID="IT.ADSL.AGE" Value="33"/>
<ItemData ItemOID="IT.ADSL.AGEU" Value="YEARS"/>
<ItemData ItemOID="IT.ADSL.SEX" Value="M"/>
<ItemData ItemOID="IT.ADSL.RACE" Value="OTHER"/>
<ItemData ItemOID="IT.ADSL.ARMCD" Value="A"/>
<ItemData ItemOID="IT.ADSL.ARM" Value="TRT A"/>
<ItemData ItemOID="IT.ADSL.VISIT1DT" Value="17665"/>
<ItemData ItemOID="IT.ADSL.RANDDT" Value="17665"/>
<ItemData ItemOID="IT.ADSL.COMPLT2" Value="Y"/>
<ItemData ItemOID="IT.ADSL.COMPLT4" Value="Y"/>
<ItemData ItemOID="IT.ADSL.COMPLT6" Value="Y"/>
<ItemData ItemOID="IT.ADSL.TRTEDT" Value="17707"/>
<ItemData ItemOID="IT.ADSL.TRTSDT" Value="17665"/>
<ItemData ItemOID="IT.ADSL.DSDECOD" Value="COMPLETED"/>
<ItemData ItemOID="IT.ADSL.FASFL" Value="Y"/>
<ItemData ItemOID="IT.ADSL.ITTFL" Value="Y"/>
<ItemData ItemOID="IT.ADSL.SAFFL" Value="Y"/>
<ItemData ItemOID="IT.ADSL.TRT01P" Value="TRT A"/>
<ItemData ItemOID="IT.ADSL.TRT01PN" Value="1"/>
</ItemGroupData>
<ItemGroupData ItemGroupOID="IG.ADSL" data:ItemGroupDataSeq="59">
<ItemData ItemOID="IT.ADSL.STUDYID" Value="SASCSTDEMODATA"/>
<ItemData ItemOID="IT.ADSL.USUBJID" Value="S003P009"/>
<ItemData ItemOID="IT.ADSL.SUBJID" Value="P009"/>
<ItemData ItemOID="IT.ADSL.RFSTDTC" Value="2008-05-20"/>
<ItemData ItemOID="IT.ADSL.RFENDTC" Value="2008-06-30"/>
<ItemData ItemOID="IT.ADSL.SITEID" Value="S003"/>
<ItemData ItemOID="IT.ADSL.AGE" Value="43"/>
<ItemData ItemOID="IT.ADSL.AGEU" Value="YEARS"/>
<ItemData ItemOID="IT.ADSL.SEX" Value="F"/>
<ItemData ItemOID="IT.ADSL.RACE" Value="HISPANIC"/>
<ItemData ItemOID="IT.ADSL.ARMCD" Value="SCRNFAIL"/>
<ItemData ItemOID="IT.ADSL.ARM" Value="SCREEN FAILURE"/>
<ItemData ItemOID="IT.ADSL.VISIT1DT" Value="17672"/>
<ItemData ItemOID="IT.ADSL.RANDDT" Value="17672"/>
<ItemData ItemOID="IT.ADSL.COMPLT2" Value="Y"/>
<ItemData ItemOID="IT.ADSL.COMPLT4" Value="Y"/>
<ItemData ItemOID="IT.ADSL.COMPLT6" Value="N"/>
<ItemData ItemOID="IT.ADSL.TRTEDT" Value="17699"/>
<ItemData ItemOID="IT.ADSL.TRTSDT" Value="17672"/>
<ItemData ItemOID="IT.ADSL.DSDECOD" Value="LOST TO FOLLOW UP"/>
<ItemData ItemOID="IT.ADSL.FASFL" Value="N"/>
<ItemData ItemOID="IT.ADSL.ITTFL" Value="Y"/>
<ItemData ItemOID="IT.ADSL.SAFFL" Value="Y"/>
<ItemData ItemOID="IT.ADSL.TRT01P" Value="SCREEN FAILURE"/>
<ItemData ItemOID="IT.ADSL.TRT01PN" Value="0"/>
</ItemGroupData>
<ItemGroupData ItemGroupOID="IG.ADSL" data:ItemGroupDataSeq="60">
<ItemData ItemOID="IT.ADSL.STUDYID" Value="SASCSTDEMODATA"/>
<ItemData ItemOID="IT.ADSL.USUBJID" Value="S003P010"/>
<ItemData ItemOID="IT.ADSL.SUBJID" Value="P010"/>
<ItemData ItemOID="IT.ADSL.RFSTDTC" Value="2008-05-29T11:25"/>
<ItemData ItemOID="IT.ADSL.RFENDTC" Value="2008-07-10"/>
<ItemData ItemOID="IT.ADSL.SITEID" Value="S003"/>
<ItemData ItemOID="IT.ADSL.AGE" Value="52"/>
<ItemData ItemOID="IT.ADSL.AGEU" Value="YEARS"/>
<ItemData ItemOID="IT.ADSL.SEX" Value="M"/>
<ItemData ItemOID="IT.ADSL.RACE" Value="CAUCASIAN"/>
<ItemData ItemOID="IT.ADSL.ARMCD" Value="C"/>
<ItemData ItemOID="IT.ADSL.ARM" Value="TRT C"/>
<ItemData ItemOID="IT.ADSL.VISIT1DT" Value="17681"/>
<ItemData ItemOID="IT.ADSL.RANDDT" Value="17681"/>
<ItemData ItemOID="IT.ADSL.COMPLT2" Value="Y"/>
<ItemData ItemOID="IT.ADSL.COMPLT4" Value="Y"/>
<ItemData ItemOID="IT.ADSL.COMPLT6" Value="Y"/>
<ItemData ItemOID="IT.ADSL.TRTEDT" Value="17723"/>
<ItemData ItemOID="IT.ADSL.TRTSDT" Value="17681"/>
<ItemData ItemOID="IT.ADSL.DSDECOD" Value="COMPLETED"/>
<ItemData ItemOID="IT.ADSL.FASFL" Value="Y"/>
<ItemData ItemOID="IT.ADSL.ITTFL" Value="Y"/>
<ItemData ItemOID="IT.ADSL.SAFFL" Value="Y"/>
<ItemData ItemOID="IT.ADSL.TRT01P" Value="TRT C"/>
<ItemData ItemOID="IT.ADSL.TRT01PN" Value="3"/>
</ItemGroupData>
<ItemGroupData ItemGroupOID="IG.ADSL" data:ItemGroupDataSeq="61">
<ItemData ItemOID="IT.ADSL.STUDYID" Value="SASCSTDEMODATA"/>
<ItemData ItemOID="IT.ADSL.USUBJID" Value="S003P011"/>
<ItemData ItemOID="IT.ADSL.SUBJID" Value="P011"/>
<ItemData ItemOID="IT.ADSL.RFSTDTC" Value="2008-06-03T16:15"/>
<ItemData ItemOID="IT.ADSL.RFENDTC" Value="2008-07-14"/>
<ItemData ItemOID="IT.ADSL.SITEID" Value="S003"/>
<ItemData ItemOID="IT.ADSL.AGE" Value="31"/>
<ItemData ItemOID="IT.ADSL.AGEU" Value="YEARS"/>
<ItemData ItemOID="IT.ADSL.SEX" Value="F"/>
<ItemData ItemOID="IT.ADSL.RACE" Value="CAUCASIAN"/>
<ItemData ItemOID="IT.ADSL.ARMCD" Value="A"/>
<ItemData ItemOID="IT.ADSL.ARM" Value="TRT A"/>
<ItemData ItemOID="IT.ADSL.VISIT1DT" Value="17686"/>
<ItemData ItemOID="IT.ADSL.RANDDT" Value="17686"/>
<ItemData ItemOID="IT.ADSL.COMPLT2" Value="Y"/>
<ItemData ItemOID="IT.ADSL.COMPLT4" Value="Y"/>
<ItemData ItemOID="IT.ADSL.COMPLT6" Value="N"/>
<ItemData ItemOID="IT.ADSL.TRTEDT" Value="17714"/>
<ItemData ItemOID="IT.ADSL.TRTSDT" Value="17686"/>
<ItemData ItemOID="IT.ADSL.DSDECOD" Value="LOST TO FOLLOW UP"/>
<ItemData ItemOID="IT.ADSL.FASFL" Value="Y"/>
<ItemData ItemOID="IT.ADSL.ITTFL" Value="Y"/>
<ItemData ItemOID="IT.ADSL.SAFFL" Value="Y"/>
<ItemData ItemOID="IT.ADSL.TRT01P" Value="TRT A"/>
<ItemData ItemOID="IT.ADSL.TRT01PN" Value="1"/>
</ItemGroupData>
<ItemGroupData ItemGroupOID="IG.ADSL" data:ItemGroupDataSeq="62">
<ItemData ItemOID="IT.ADSL.STUDYID" Value="SASCSTDEMODATA"/>
<ItemData ItemOID="IT.ADSL.USUBJID" Value="S003P012"/>
<ItemData ItemOID="IT.ADSL.SUBJID" Value="P012"/>
<ItemData ItemOID="IT.ADSL.RFSTDTC" Value="2008-06-12T15:00"/>
<ItemData ItemOID="IT.ADSL.RFENDTC" Value="2008-07-24T12:35"/>
<ItemData ItemOID="IT.ADSL.SITEID" Value="S003"/>
<ItemData ItemOID="IT.ADSL.AGE" Value="19"/>
<ItemData ItemOID="IT.ADSL.AGEU" Value="YEARS"/>
<ItemData ItemOID="IT.ADSL.SEX" Value="F"/>
<ItemData ItemOID="IT.ADSL.RACE" Value="HISPANIC"/>
<ItemData ItemOID="IT.ADSL.ARMCD" Value="C"/>
<ItemData ItemOID="IT.ADSL.ARM" Value="TRT C"/>
<ItemData ItemOID="IT.ADSL.VISIT1DT" Value="17695"/>
<ItemData ItemOID="IT.ADSL.RANDDT" Value="17695"/>
<ItemData ItemOID="IT.ADSL.COMPLT2" Value="Y"/>
<ItemData ItemOID="IT.ADSL.COMPLT4" Value="Y"/>
<ItemData ItemOID="IT.ADSL.COMPLT6" Value="N"/>
<ItemData ItemOID="IT.ADSL.TRTEDT" Value="17722"/>
<ItemData ItemOID="IT.ADSL.TRTSDT" Value="17695"/>
<ItemData ItemOID="IT.ADSL.DSDECOD" Value="LOST TO FOLLOW UP"/>
<ItemData ItemOID="IT.ADSL.FASFL" Value="Y"/>
<ItemData ItemOID="IT.ADSL.ITTFL" Value="Y"/>
<ItemData ItemOID="IT.ADSL.SAFFL" Value="Y"/>
<ItemData ItemOID="IT.ADSL.TRT01P" Value="TRT C"/>
<ItemData ItemOID="IT.ADSL.TRT01PN" Value="3"/>
</ItemGroupData>
<ItemGroupData ItemGroupOID="IG.ADSL" data:ItemGroupDataSeq="63">
<ItemData ItemOID="IT.ADSL.STUDYID" Value="SASCSTDEMODATA"/>
<ItemData ItemOID="IT.ADSL.USUBJID" Value="S003P013"/>
<ItemData ItemOID="IT.ADSL.SUBJID" Value="P013"/>
<ItemData ItemOID="IT.ADSL.RFSTDTC" Value="2008-06-17T10:40"/>
<ItemData ItemOID="IT.ADSL.RFENDTC" Value="2008-07-29T15:55"/>
<ItemData ItemOID="IT.ADSL.SITEID" Value="S003"/>
<ItemData ItemOID="IT.ADSL.AGE" Value="46"/>
<ItemData ItemOID="IT.ADSL.AGEU" Value="YEARS"/>
<ItemData ItemOID="IT.ADSL.SEX" Value="M"/>
<ItemData ItemOID="IT.ADSL.RACE" Value="HISPANIC"/>
<ItemData ItemOID="IT.ADSL.ARMCD" Value="B"/>
<ItemData ItemOID="IT.ADSL.ARM" Value="TRT B"/>
<ItemData ItemOID="IT.ADSL.VISIT1DT" Value="17700"/>
<ItemData ItemOID="IT.ADSL.RANDDT" Value="17700"/>
<ItemData ItemOID="IT.ADSL.COMPLT2" Value="N"/>
<ItemData ItemOID="IT.ADSL.COMPLT4" Value="N"/>
<ItemData ItemOID="IT.ADSL.COMPLT6" Value="N"/>
<ItemData ItemOID="IT.ADSL.TRTEDT" Value="17700"/>
<ItemData ItemOID="IT.ADSL.TRTSDT" Value="17700"/>
<ItemData ItemOID="IT.ADSL.DSDECOD" Value="RANDOMIZED"/>
<ItemData ItemOID="IT.ADSL.FASFL" Value="Y"/>
<ItemData ItemOID="IT.ADSL.ITTFL" Value="Y"/>
<ItemData ItemOID="IT.ADSL.SAFFL" Value="Y"/>
<ItemData ItemOID="IT.ADSL.TRT01P" Value="TRT B"/>
<ItemData ItemOID="IT.ADSL.TRT01PN" Value="2"/>
</ItemGroupData>
<ItemGroupData ItemGroupOID="IG.ADSL" data:ItemGroupDataSeq="64">
<ItemData ItemOID="IT.ADSL.STUDYID" Value="SASCSTDEMODATA"/>
<ItemData ItemOID="IT.ADSL.USUBJID" Value="S003P014"/>
<ItemData ItemOID="IT.ADSL.SUBJID" Value="P014"/>
<ItemData ItemOID="IT.ADSL.RFSTDTC" Value="2008-06-30T15:55"/>
<ItemData ItemOID="IT.ADSL.RFENDTC" Value="2008-08-11T09:55"/>
<ItemData ItemOID="IT.ADSL.SITEID" Value="S003"/>
<ItemData ItemOID="IT.ADSL.AGE" Value="24"/>
<ItemData ItemOID="IT.ADSL.AGEU" Value="YEARS"/>
<ItemData ItemOID="IT.ADSL.SEX" Value="M"/>
<ItemData ItemOID="IT.ADSL.RACE" Value="CAUCASIAN"/>
<ItemData ItemOID="IT.ADSL.ARMCD" Value="A"/>
<ItemData ItemOID="IT.ADSL.ARM" Value="TRT A"/>
<ItemData ItemOID="IT.ADSL.VISIT1DT" Value="17713"/>
<ItemData ItemOID="IT.ADSL.RANDDT" Value="17713"/>
<ItemData ItemOID="IT.ADSL.COMPLT2" Value="Y"/>
<ItemData ItemOID="IT.ADSL.COMPLT4" Value="Y"/>
<ItemData ItemOID="IT.ADSL.COMPLT6" Value="N"/>
<ItemData ItemOID="IT.ADSL.TRTEDT" Value="17743"/>
<ItemData ItemOID="IT.ADSL.TRTSDT" Value="17713"/>
<ItemData ItemOID="IT.ADSL.DSDECOD" Value="LOST TO FOLLOW UP"/>
<ItemData ItemOID="IT.ADSL.FASFL" Value="Y"/>
<ItemData ItemOID="IT.ADSL.ITTFL" Value="Y"/>
<ItemData ItemOID="IT.ADSL.SAFFL" Value="Y"/>
<ItemData ItemOID="IT.ADSL.TRT01P" Value="TRT A"/>
<ItemData ItemOID="IT.ADSL.TRT01PN" Value="1"/>
</ItemGroupData>
<ItemGroupData ItemGroupOID="IG.ADSL" data:ItemGroupDataSeq="65">
<ItemData ItemOID="IT.ADSL.STUDYID" Value="SASCSTDEMODATA"/>
<ItemData ItemOID="IT.ADSL.USUBJID" Value="S003P015"/>
<ItemData ItemOID="IT.ADSL.SUBJID" Value="P015"/>
<ItemData ItemOID="IT.ADSL.RFSTDTC" Value="2008-07-03T14:15"/>
<ItemData ItemOID="IT.ADSL.RFENDTC" Value="2008-08-14T09:30"/>
<ItemData ItemOID="IT.ADSL.SITEID" Value="S003"/>
<ItemData ItemOID="IT.ADSL.AGE" Value="39"/>
<ItemData ItemOID="IT.ADSL.AGEU" Value="YEARS"/>
<ItemData ItemOID="IT.ADSL.SEX" Value="M"/>
<ItemData ItemOID="IT.ADSL.RACE" Value="BLACK"/>
<ItemData ItemOID="IT.ADSL.ARMCD" Value="B"/>
<ItemData ItemOID="IT.ADSL.ARM" Value="TRT B"/>
<ItemData ItemOID="IT.ADSL.VISIT1DT" Value="17716"/>
<ItemData ItemOID="IT.ADSL.RANDDT" Value="17716"/>
<ItemData ItemOID="IT.ADSL.COMPLT2" Value="Y"/>
<ItemData ItemOID="IT.ADSL.COMPLT4" Value="Y"/>
<ItemData ItemOID="IT.ADSL.COMPLT6" Value="Y"/>
<ItemData ItemOID="IT.ADSL.TRTEDT" Value="17758"/>
<ItemData ItemOID="IT.ADSL.TRTSDT" Value="17716"/>
<ItemData ItemOID="IT.ADSL.DSDECOD" Value="COMPLETED"/>
<ItemData ItemOID="IT.ADSL.FASFL" Value="Y"/>
<ItemData ItemOID="IT.ADSL.ITTFL" Value="Y"/>
<ItemData ItemOID="IT.ADSL.SAFFL" Value="Y"/>
<ItemData ItemOID="IT.ADSL.TRT01P" Value="TRT B"/>
<ItemData ItemOID="IT.ADSL.TRT01PN" Value="2"/>
</ItemGroupData>
<ItemGroupData ItemGroupOID="IG.ADSL" data:ItemGroupDataSeq="66">
<ItemData ItemOID="IT.ADSL.STUDYID" Value="SASCSTDEMODATA"/>
<ItemData ItemOID="IT.ADSL.USUBJID" Value="S003P016"/>
<ItemData ItemOID="IT.ADSL.SUBJID" Value="P016"/>
<ItemData ItemOID="IT.ADSL.RFSTDTC" Value="2008-07-10"/>
<ItemData ItemOID="IT.ADSL.RFENDTC" Value="2008-08-20T16:15"/>
<ItemData ItemOID="IT.ADSL.SITEID" Value="S003"/>
<ItemData ItemOID="IT.ADSL.AGE" Value="24"/>
<ItemData ItemOID="IT.ADSL.AGEU" Value="YEARS"/>
<ItemData ItemOID="IT.ADSL.SEX" Value="F"/>
<ItemData ItemOID="IT.ADSL.RACE" Value="HISPANIC"/>
<ItemData ItemOID="IT.ADSL.ARMCD" Value="B"/>
<ItemData ItemOID="IT.ADSL.ARM" Value="TRT B"/>
<ItemData ItemOID="IT.ADSL.VISIT1DT" Value="17723"/>
<ItemData ItemOID="IT.ADSL.RANDDT" Value="17723"/>
<ItemData ItemOID="IT.ADSL.COMPLT2" Value="Y"/>
<ItemData ItemOID="IT.ADSL.COMPLT4" Value="Y"/>
<ItemData ItemOID="IT.ADSL.COMPLT6" Value="Y"/>
<ItemData ItemOID="IT.ADSL.TRTEDT" Value="17764"/>
<ItemData ItemOID="IT.ADSL.TRTSDT" Value="17723"/>
<ItemData ItemOID="IT.ADSL.DSDECOD" Value="COMPLETED"/>
<ItemData ItemOID="IT.ADSL.FASFL" Value="Y"/>
<ItemData ItemOID="IT.ADSL.ITTFL" Value="Y"/>
<ItemData ItemOID="IT.ADSL.SAFFL" Value="Y"/>
<ItemData ItemOID="IT.ADSL.TRT01P" Value="TRT B"/>
<ItemData ItemOID="IT.ADSL.TRT01PN" Value="2"/>
</ItemGroupData>
<ItemGroupData ItemGroupOID="IG.ADSL" data:ItemGroupDataSeq="67">
<ItemData ItemOID="IT.ADSL.STUDYID" Value="SASCSTDEMODATA"/>
<ItemData ItemOID="IT.ADSL.USUBJID" Value="S003P017"/>
<ItemData ItemOID="IT.ADSL.SUBJID" Value="P017"/>
<ItemData ItemOID="IT.ADSL.RFSTDTC" Value="2008-07-15T15:20"/>
<ItemData ItemOID="IT.ADSL.RFENDTC" Value="2008-08-26T13:30"/>
<ItemData ItemOID="IT.ADSL.SITEID" Value="S003"/>
<ItemData ItemOID="IT.ADSL.AGE" Value="46"/>
<ItemData ItemOID="IT.ADSL.AGEU" Value="YEARS"/>
<ItemData ItemOID="IT.ADSL.SEX" Value="M"/>
<ItemData ItemOID="IT.ADSL.RACE" Value="CAUCASIAN"/>
<ItemData ItemOID="IT.ADSL.ARMCD" Value="C"/>
<ItemData ItemOID="IT.ADSL.ARM" Value="TRT C"/>
<ItemData ItemOID="IT.ADSL.VISIT1DT" Value="17728"/>
<ItemData ItemOID="IT.ADSL.RANDDT" Value="17728"/>
<ItemData ItemOID="IT.ADSL.COMPLT2" Value="Y"/>
<ItemData ItemOID="IT.ADSL.COMPLT4" Value="Y"/>
<ItemData ItemOID="IT.ADSL.COMPLT6" Value="Y"/>
<ItemData ItemOID="IT.ADSL.TRTEDT" Value="17770"/>
<ItemData ItemOID="IT.ADSL.TRTSDT" Value="17728"/>
<ItemData ItemOID="IT.ADSL.DSDECOD" Value="COMPLETED"/>
<ItemData ItemOID="IT.ADSL.FASFL" Value="Y"/>
<ItemData ItemOID="IT.ADSL.ITTFL" Value="Y"/>
<ItemData ItemOID="IT.ADSL.SAFFL" Value="Y"/>
<ItemData ItemOID="IT.ADSL.TRT01P" Value="TRT C"/>
<ItemData ItemOID="IT.ADSL.TRT01PN" Value="3"/>
</ItemGroupData>
<ItemGroupData ItemGroupOID="IG.ADSL" data:ItemGroupDataSeq="68">
<ItemData ItemOID="IT.ADSL.STUDYID" Value="SASCSTDEMODATA"/>
<ItemData ItemOID="IT.ADSL.USUBJID" Value="S003P018"/>
<ItemData ItemOID="IT.ADSL.SUBJID" Value="P018"/>
<ItemData ItemOID="IT.ADSL.RFSTDTC" Value="2008-07-21"/>
<ItemData ItemOID="IT.ADSL.RFENDTC" Value="2008-09-01T15:05"/>
<ItemData ItemOID="IT.ADSL.SITEID" Value="S003"/>
<ItemData ItemOID="IT.ADSL.AGE" Value="48"/>
<ItemData ItemOID="IT.ADSL.AGEU" Value="YEARS"/>
<ItemData ItemOID="IT.ADSL.SEX" Value="M"/>
<ItemData ItemOID="IT.ADSL.RACE" Value="BLACK"/>
<ItemData ItemOID="IT.ADSL.ARMCD" Value="B"/>
<ItemData ItemOID="IT.ADSL.ARM" Value="TRT B"/>
<ItemData ItemOID="IT.ADSL.VISIT1DT" Value="17734"/>
<ItemData ItemOID="IT.ADSL.RANDDT" Value="17734"/>
<ItemData ItemOID="IT.ADSL.COMPLT2" Value="Y"/>
<ItemData ItemOID="IT.ADSL.COMPLT4" Value="Y"/>
<ItemData ItemOID="IT.ADSL.COMPLT6" Value="Y"/>
<ItemData ItemOID="IT.ADSL.TRTEDT" Value="17776"/>
<ItemData ItemOID="IT.ADSL.TRTSDT" Value="17734"/>
<ItemData ItemOID="IT.ADSL.DSDECOD" Value="COMPLETED"/>
<ItemData ItemOID="IT.ADSL.FASFL" Value="Y"/>
<ItemData ItemOID="IT.ADSL.ITTFL" Value="Y"/>
<ItemData ItemOID="IT.ADSL.SAFFL" Value="Y"/>
<ItemData ItemOID="IT.ADSL.TRT01P" Value="TRT B"/>
<ItemData ItemOID="IT.ADSL.TRT01PN" Value="2"/>
</ItemGroupData>
<ItemGroupData ItemGroupOID="IG.ADSL" data:ItemGroupDataSeq="69">
<ItemData ItemOID="IT.ADSL.STUDYID" Value="SASCSTDEMODATA"/>
<ItemData ItemOID="IT.ADSL.USUBJID" Value="S003P019"/>
<ItemData ItemOID="IT.ADSL.SUBJID" Value="P019"/>
<ItemData ItemOID="IT.ADSL.RFSTDTC" Value="2008-07-24"/>
<ItemData ItemOID="IT.ADSL.RFENDTC" Value="2008-09-05"/>
<ItemData ItemOID="IT.ADSL.SITEID" Value="S003"/>
<ItemData ItemOID="IT.ADSL.AGE" Value="37"/>
<ItemData ItemOID="IT.ADSL.AGEU" Value="YEARS"/>
<ItemData ItemOID="IT.ADSL.SEX" Value="F"/>
<ItemData ItemOID="IT.ADSL.RACE" Value="CAUCASIAN"/>
<ItemData ItemOID="IT.ADSL.ARMCD" Value="C"/>
<ItemData ItemOID="IT.ADSL.ARM" Value="TRT C"/>
<ItemData ItemOID="IT.ADSL.VISIT1DT" Value="17737"/>
<ItemData ItemOID="IT.ADSL.RANDDT" Value="17737"/>
<ItemData ItemOID="IT.ADSL.COMPLT2" Value="Y"/>
<ItemData ItemOID="IT.ADSL.COMPLT4" Value="Y"/>
<ItemData ItemOID="IT.ADSL.COMPLT6" Value="Y"/>
<ItemData ItemOID="IT.ADSL.TRTEDT" Value="17780"/>
<ItemData ItemOID="IT.ADSL.TRTSDT" Value="17737"/>
<ItemData ItemOID="IT.ADSL.DSDECOD" Value="COMPLETED"/>
<ItemData ItemOID="IT.ADSL.FASFL" Value="Y"/>
<ItemData ItemOID="IT.ADSL.ITTFL" Value="Y"/>
<ItemData ItemOID="IT.ADSL.SAFFL" Value="Y"/>
<ItemData ItemOID="IT.ADSL.TRT01P" Value="TRT C"/>
<ItemData ItemOID="IT.ADSL.TRT01PN" Value="3"/>
</ItemGroupData>
<ItemGroupData ItemGroupOID="IG.ADSL" data:ItemGroupDataSeq="70">
<ItemData ItemOID="IT.ADSL.STUDYID" Value="SASCSTDEMODATA"/>
<ItemData ItemOID="IT.ADSL.USUBJID" Value="S003P020"/>
<ItemData ItemOID="IT.ADSL.SUBJID" Value="P020"/>
<ItemData ItemOID="IT.ADSL.RFSTDTC" Value="2008-08-01"/>
<ItemData ItemOID="IT.ADSL.RFENDTC" Value="2008-09-12T12:45"/>
<ItemData ItemOID="IT.ADSL.SITEID" Value="S003"/>
<ItemData ItemOID="IT.ADSL.AGE" Value="27"/>
<ItemData ItemOID="IT.ADSL.AGEU" Value="YEARS"/>
<ItemData ItemOID="IT.ADSL.SEX" Value="M"/>
<ItemData ItemOID="IT.ADSL.RACE" Value="CAUCASIAN"/>
<ItemData ItemOID="IT.ADSL.ARMCD" Value="C"/>
<ItemData ItemOID="IT.ADSL.ARM" Value="TRT C"/>
<ItemData ItemOID="IT.ADSL.VISIT1DT" Value="17745"/>
<ItemData ItemOID="IT.ADSL.RANDDT" Value="17745"/>
<ItemData ItemOID="IT.ADSL.COMPLT2" Value="Y"/>
<ItemData ItemOID="IT.ADSL.COMPLT4" Value="N"/>
<ItemData ItemOID="IT.ADSL.COMPLT6" Value="Y"/>
<ItemData ItemOID="IT.ADSL.FASFL" Value="Y"/>
<ItemData ItemOID="IT.ADSL.ITTFL" Value="Y"/>
<ItemData ItemOID="IT.ADSL.SAFFL" Value="N"/>
<ItemData ItemOID="IT.ADSL.TRT01P" Value="TRT C"/>
<ItemData ItemOID="IT.ADSL.TRT01PN" Value="3"/>
</ItemGroupData>
</ClinicalData>
</ODM>
